,trial,start_time,rt,correct,fact_id,question,answer,alpha,new,audio_visual_chance,visual_chance,audio_or_visual_fact,fact_id,audio_visual_chance,visual_chance,audio_or_visual_fact,fact_id,correct_audio_visual,wrong_audio_visual,correct_visual,wrong_visual
0,1,28762.598655000147,5613.380899000731,False,1,car,carro,0.3,True,0.5,0.5,Visual,1,0.5,0.5,Visual,1,0,0,0,0
1,2,36950.99882900013,861.9195510000282,True,1,car,carro,0.3,False,0.5,0.5,Visual,1,0.5,0.5,Visual,1,0,0,0,0
2,3,40143.29863000057,2922.089435000089,True,2,visit,visita,0.3,True,0.5,0.5,Audio,2,0.5,0.5,Audio,2,0,0,0,0
3,4,48903.384728000674,1156.8124559998978,True,2,visit,visita,0.3,False,0.5,0.5,Audio,2,0.5,0.5,Audio,2,0,0,0,0
4,5,52375.77112300005,1649.402519999967,True,3,bread,pao,0.3,True,0.5,0.5,Visual,3,0.5,0.5,Visual,3,0,0,0,0
5,6,57208.054273000016,1762.1442380004737,True,4,blood,sangue,0.3,True,0.5,0.5,Audio,4,0.5,0.5,Audio,4,0,0,0,0
6,7,61024.12901400021,1194.9352980000183,True,3,bread,pao,0.3,False,0.5,0.5,Visual,3,0.5,0.5,Visual,3,0,0,0,0
7,8,64095.907040000384,1049.8958609996407,True,4,blood,sangue,0.3,False,0.5,0.5,Audio,4,0.5,0.5,Audio,4,0,0,0,0
8,9,67052.41960500006,1380.4819150000258,True,5,insect,inseto,0.3,True,0.5,0.5,Visual,5,0.5,0.5,Visual,5,0,0,0,0
9,10,71047.67472800086,1343.8560309996246,True,6,exam,exame,0.3,True,0.5,0.5,Visual,6,0.5,0.5,Visual,6,0,0,0,0
10,11,74630.26089100004,1019.7542350006116,True,5,insect,inseto,0.3,False,0.5,0.5,Visual,5,0.5,0.5,Visual,5,0,0,0,0
11,12,77817.07693100089,773.9907609993534,True,6,exam,exame,0.3,False,0.5,0.5,Visual,6,0.5,0.5,Visual,6,0,0,0,0
12,13,80593.63039800065,1112.4416630000196,True,7,elevator,elevador,0.3,True,0.5,0.5,Visual,7,0.5,0.5,Visual,7,0,0,0,0
13,14,84923.56942800051,1411.53534499972,True,1,car,carro,0.250390625,False,0.5,0.5,Visual,1,0.5,0.5,Visual,1,0,0,0,0
14,15,88159.05080200083,901.5339949992194,True,7,elevator,elevador,0.3,False,0.5,0.5,Visual,7,0.5,0.5,Visual,7,0,0,0,0
15,16,91612.32949800068,1069.262623999748,True,8,industry,industria,0.3,True,0.5,0.5,Visual,8,0.5,0.5,Visual,8,0,0,0,0
16,17,98294.621258,945.84130200019,True,2,visit,visita,0.250390625,False,0.5,0.5,Audio,2,0.5,0.5,Audio,2,0,0,0,0
17,18,101258.66130800024,783.0087610000191,True,8,industry,industria,0.3,False,0.5,0.5,Visual,8,0.5,0.5,Visual,8,0,0,0,0
18,19,105601.17564600022,1975.022153999831,True,9,employee,empregado,0.3,True,0.5,0.5,Audio,9,0.5,0.5,Audio,9,0,0,0,0
19,20,110290.11078000076,1149.3914469992887,True,3,bread,pao,0.250390625,False,0.5,0.5,Visual,3,0.5,0.5,Visual,3,0,0,0,0
20,21,113359.4332270004,1057.554334999615,True,9,employee,empregado,0.3,False,0.5,0.5,Audio,9,0.5,0.5,Audio,9,0,0,0,0
21,22,116835.89134400064,1020.4391979996144,True,4,blood,sangue,0.250390625,False,0.5,0.5,Audio,4,0.5,0.5,Audio,4,0,0,0,0
22,23,119727.96897800072,inf,True,10,virus,virus,0.3,True,0.5,0.5,Audio,10,0.5,0.5,Audio,10,0,0,0,0
23,24,124612.89892100012,965.4187790001744,True,5,insect,inseto,0.250390625,False,0.5,0.5,Visual,5,0.5,0.5,Visual,5,0,0,0,0
24,25,127752.34138000089,792.8871979993419,True,10,virus,virus,0.3,False,0.5,0.5,Audio,10,0.5,0.5,Audio,10,0,0,0,0
25,26,130336.84019900011,730.5003680003138,True,6,exam,exame,0.250390625,False,0.5,0.5,Visual,6,0.5,0.5,Visual,6,0,0,0,0
26,27,132937.97877400083,1264.319478999823,True,11,dinner,jantar,0.3,True,0.5,0.5,Audio,11,0.5,0.5,Audio,11,0,0,0,0
27,28,137149.64317900012,845.4672370007611,True,7,elevator,elevador,0.250390625,False,0.5,0.5,Visual,7,0.5,0.5,Visual,7,0,0,0,0
28,29,140332.6827940009,829.0975059999328,True,11,dinner,jantar,0.3,False,0.5,0.5,Audio,11,0.5,0.5,Audio,11,0,0,0,0
29,30,143102.70577200025,1115.1843850002624,True,12,investment,investimento,0.3,True,0.5,0.5,Visual,12,0.5,0.5,Visual,12,0,0,0,0
30,31,149856.04545300067,913.028553999524,True,8,industry,industria,0.250390625,False,0.5,0.5,Visual,8,0.5,0.5,Visual,8,0,0,0,0
31,32,156115.82690500017,1031.7097349998369,True,12,investment,investimento,0.3,False,0.5,0.5,Visual,12,0.5,0.5,Visual,12,0,0,0,0
32,33,160320.63558800018,1651.0999950005498,True,9,employee,empregado,0.250390625,False,0.5,0.5,Audio,9,0.5,0.5,Audio,9,0,0,0,0
33,34,165185.4168280006,1294.7765899998485,True,13,yes,sim,0.3,True,0.5,0.5,Audio,13,0.5,0.5,Audio,13,0,0,0,0
34,35,168395.92533000087,1482.9074279996275,True,14,thank you,obrigado,0.3,True,0.5,0.5,Visual,14,0.5,0.5,Visual,14,0,0,0,0
35,36,172462.40526700058,1026.4001949999656,True,13,yes,sim,0.3,False,0.5,0.5,Audio,13,0.5,0.5,Audio,13,0,0,0,0
36,37,175258.13550600014,1163.866275000153,True,14,thank you,obrigado,0.3,False,0.5,0.5,Visual,14,0.5,0.5,Visual,14,0,0,0,0
37,38,178924.38142300033,955.3512190004984,True,10,virus,virus,0.250390625,False,0.5,0.5,Audio,10,0.5,0.5,Audio,10,0,0,0,0
38,39,181656.3240710002,1589.8205760004057,True,15,goodbye,adeus,0.3,True,0.5,0.5,Audio,15,0.5,0.5,Audio,15,0,0,0,0
39,40,186166.10870300065,2525.9438980001432,True,11,dinner,jantar,0.3214843749999999,False,0.5,0.5,Audio,11,0.5,0.5,Audio,11,0,0,0,0
40,41,190548.67153400028,1564.386046999978,True,15,goodbye,adeus,0.3,False,0.5,0.5,Audio,15,0.5,0.5,Audio,15,0,0,0,0
41,42,194143.91651300047,2302.8734239996998,True,16,smile,sorrir,0.3,True,0.5,0.5,Visual,16,0.5,0.5,Visual,16,0,0,0,0
42,43,198439.6536690001,1301.0398330006865,True,17,today,hoje,0.3,True,0.5,0.5,Visual,17,0.5,0.5,Visual,17,0,0,0,0
43,44,202084.56709200077,1646.515073000046,True,16,smile,sorrir,0.3,False,0.5,0.5,Visual,16,0.5,0.5,Visual,16,0,0,0,0
44,45,205573.9429670002,1071.661480999872,True,17,today,hoje,0.3,False,0.5,0.5,Visual,17,0.5,0.5,Visual,17,0,0,0,0
45,46,208781.23341100037,961.7672720005504,True,12,investment,investimento,0.250390625,False,0.5,0.5,Visual,12,0.5,0.5,Visual,12,0,0,0,0
46,47,213522.65350500055,1702.8471949997474,True,18,airport,aeroporto,0.3,True,0.5,0.5,Audio,18,0.5,0.5,Audio,18,0,0,0,0
47,48,217409.91084600045,1209.4142489995866,True,19,hi,oi,0.3,True,0.5,0.5,Visual,19,0.5,0.5,Visual,19,0,0,0,0
48,49,220544.72517600065,1026.1818359995086,True,18,airport,aeroporto,0.3,False,0.5,0.5,Audio,18,0.5,0.5,Audio,18,0,0,0,0
49,50,223874.89562200065,1157.9717249996902,True,19,hi,oi,0.3,False,0.5,0.5,Visual,19,0.5,0.5,Visual,19,0,0,0,0
50,51,226676.76830900015,1101.8552360001197,True,13,yes,sim,0.250390625,False,0.5,0.5,Audio,13,0.5,0.5,Audio,13,0,0,0,0
51,52,229268.53920900065,1142.858782999625,True,14,thank you,obrigado,0.250390625,False,0.5,0.5,Visual,14,0.5,0.5,Visual,14,0,0,0,0
52,53,233182.3596240001,2178.6565940001456,True,20,nice to meet you,prazer,0.3,True,0.5,0.5,Visual,20,0.5,0.5,Visual,20,0,0,0,0
53,54,239869.0666650009,1261.808613999165,True,15,goodbye,adeus,0.250390625,False,0.5,0.5,Audio,15,0.5,0.5,Audio,15,0,0,0,0
54,55,243150.08368800045,inf,True,20,nice to meet you,prazer,0.3,False,0.5,0.5,Visual,20,0.5,0.5,Visual,20,0,0,0,0
55,56,254408.8050240007,inf,True,16,smile,sorrir,0.349609375,False,0.5,0.5,Visual,16,0.5,0.5,Visual,16,0,0,0,0
56,57,259465.22665000067,inf,False,17,today,hoje,0.349609375,False,0.5,0.5,Visual,17,0.5,0.5,Visual,17,0,0,0,1
57,58,271946.31035100063,1532.5595160002122,True,11,dinner,jantar,0.271875,False,0.5,0.5,Audio,11,0.5,0.5,Audio,11,1,0,0,1
58,59,277261.9183470005,893.0702480002074,True,18,airport,aeroporto,0.250390625,False,0.5,0.5,Audio,18,0.5,0.5,Audio,18,1,0,0,1
59,60,280077.3995770005,926.4786969997222,True,19,hi,oi,0.250390625,False,0.5,0.5,Visual,19,0.5,0.5,Visual,19,1,0,0,1
60,61,282594.63064900046,2851.867198999564,True,22,how are you,tudo bem,0.3,True,0.5,0.5,Visual,22,0.5,0.5,Visual,22,1,0,0,1
61,62,288293.5212230004,1560.8114870001446,True,23,week,semana,0.3,True,0.5,0.5,Audio,23,0.5,0.5,Audio,23,1,0,0,1
62,63,291546.9269390005,1500.5877240000991,True,22,how are you,tudo bem,0.3,False,0.5,0.5,Visual,22,0.5,0.5,Visual,22,1,0,0,1
63,64,295737.5684240005,1209.102881000028,True,23,week,semana,0.3,False,0.5,0.5,Audio,23,0.5,0.5,Audio,23,1,0,0,1
64,65,298617.3131860005,5542.25470799976,True,20,nice to meet you,prazer,0.349609375,False,0.5,0.5,Visual,20,0.5,0.5,Visual,20,1,0,0,1
65,66,307625.63499000046,1333.588815999974,True,16,smile,sorrir,0.3,False,0.5,0.5,Visual,16,0.5,0.5,Visual,16,1,0,1,1
66,67,310948.17301200057,1180.4696090002544,True,17,today,hoje,0.3,False,0.5,0.5,Visual,17,0.5,0.5,Visual,17,1,0,1,1
67,68,314032.5093440006,1197.9706330002518,False,24,year,ano,0.3,True,0.5,0.5,Audio,24,0.5,0.5,Audio,24,1,0,1,1
68,69,317015.93128500006,inf,True,25,yesterday,ontem,0.3,True,0.5,0.5,Visual,25,0.5,0.5,Visual,25,1,0,1,1
69,70,327649.07017300086,1426.2117299995152,True,24,year,ano,0.3,False,0.5,0.5,Audio,24,0.5,0.5,Audio,24,1,0,1,1
70,71,331005.7646310006,1209.9106109999702,True,25,yesterday,ontem,0.3,False,0.5,0.5,Visual,25,0.5,0.5,Visual,25,1,0,1,1
71,72,334875.56564500026,2013.0732480001752,True,26,tomorrow,amanha,0.3,True,0.5,0.5,Visual,26,0.5,0.5,Visual,26,1,0,1,1
72,73,339057.62941600004,4267.798497000535,True,22,how are you,tudo bem,0.349609375,False,0.5,0.5,Visual,22,0.5,0.5,Visual,22,1,0,1,1
73,74,348371.1139830002,2391.6858200000133,True,26,tomorrow,amanha,0.3,False,0.5,0.5,Visual,26,0.5,0.5,Visual,26,1,0,1,1
74,75,353527.36238800024,4963.252315999882,True,20,nice to meet you,prazer,0.3992187499999999,False,0.44999999999999996,0.55,Visual,20,0.44999999999999996,0.55,Visual,20,1,0,2,1
75,76,361711.3670940007,1475.8055949996924,True,23,week,semana,0.250390625,False,0.44999999999999996,0.55,Audio,23,0.44999999999999996,0.55,Audio,23,1,0,2,1
76,77,364854.8778730001,1460.1145140004228,True,27,can,poder,0.3,True,0.44999999999999996,0.55,Audio,27,0.44999999999999996,0.55,Audio,27,1,0,2,1
77,78,369559.33665500017,1399.3002320002995,True,28,use,usar,0.3,True,0.44999999999999996,0.55,Visual,28,0.44999999999999996,0.55,Visual,28,1,0,2,1
78,79,374596.7342800005,1137.316907000204,True,27,can,poder,0.3,False,0.44999999999999996,0.55,Audio,27,0.44999999999999996,0.55,Audio,27,1,0,2,1
79,80,377329.1917100005,777.691012000083,True,28,use,usar,0.3,False,0.44999999999999996,0.55,Visual,28,0.44999999999999996,0.55,Visual,28,1,0,2,1
80,81,379775.9090700001,1071.0169419999584,True,24,year,ano,0.250390625,False,0.44999999999999996,0.55,Audio,24,0.44999999999999996,0.55,Audio,24,1,0,2,1
81,82,382601.0002620005,2021.634456999891,True,20,nice to meet you,prazer,0.398828125,False,0.3949999999999999,0.6050000000000001,Visual,20,0.3949999999999999,0.6050000000000001,Visual,20,1,0,3,1
82,83,387731.9725370007,1804.0546349993676,True,22,how are you,tudo bem,0.3,False,0.3344999999999999,0.6655000000000001,Visual,22,0.3344999999999999,0.6655000000000001,Visual,22,1,0,4,1
83,84,392383.5657270001,5291.696268000116,True,25,yesterday,ontem,0.349609375,False,0.3344999999999999,0.6655000000000001,Visual,25,0.3344999999999999,0.6655000000000001,Visual,25,1,0,4,1
84,85,400043.550159,1371.9804650009028,True,1,car,carro,0.20078125,False,0.2679499999999999,0.7320500000000001,Visual,1,0.2679499999999999,0.7320500000000001,Visual,1,1,0,5,1
85,86,403006.7323870008,inf,True,26,tomorrow,amanha,0.349609375,False,0.2679499999999999,0.7320500000000001,Visual,26,0.2679499999999999,0.7320500000000001,Visual,26,1,0,5,1
86,87,408061.007323,956.501352000516,True,2,visit,visita,0.20078125,False,0.3179499999999999,0.68205,Audio,2,0.3179499999999999,0.68205,Audio,2,2,0,5,1
87,88,410804.7955250004,1546.0319089997793,True,29,do,fazer,0.3,True,0.3179499999999999,0.68205,Visual,29,0.3179499999999999,0.68205,Visual,29,2,0,5,1
88,89,414829.9501560005,1101.2877129996778,True,4,blood,sangue,0.20078125,False,0.3679499999999999,0.6320500000000001,Audio,4,0.3679499999999999,0.6320500000000001,Audio,4,3,0,5,1
89,90,417604.884288,2632.901942000899,True,29,do,fazer,0.3,False,0.3679499999999999,0.6320500000000001,Visual,29,0.3679499999999999,0.6320500000000001,Visual,29,3,0,5,1
90,91,421626.9289890006,1113.2290529994643,True,3,bread,pao,0.20078125,False,0.3047449999999998,0.6952550000000002,Visual,3,0.3047449999999998,0.6952550000000002,Visual,3,3,0,6,1
91,92,424566.5058100003,1102.6359719999018,True,27,can,poder,0.250390625,False,0.3047449999999998,0.6952550000000002,Audio,27,0.3047449999999998,0.6952550000000002,Audio,27,3,0,6,1
92,93,427282.34453600086,938.7663559992216,True,28,use,usar,0.250390625,False,0.3047449999999998,0.6952550000000002,Visual,28,0.3047449999999998,0.6952550000000002,Visual,28,3,0,6,1
93,94,429659.0539660001,1008.4144590000506,True,5,insect,inseto,0.20078125,False,0.2352194999999998,0.7647805000000002,Visual,5,0.2352194999999998,0.7647805000000002,Visual,5,3,0,7,1
94,95,432735.4917090006,719.6117289995309,True,6,exam,exame,0.20078125,False,0.15874144999999973,0.8412585500000003,Visual,6,0.15874144999999973,0.8412585500000003,Visual,6,3,0,8,1
95,96,435199.1826010008,6111.509878999612,True,25,yesterday,ontem,0.3992187499999999,False,0.0746155949999997,0.9253844050000003,Visual,25,0.0746155949999997,0.9253844050000003,Visual,25,3,0,9,1
96,97,443695.8694280002,1150.389428999857,True,20,nice to meet you,prazer,0.3984375,False,-0.01792284550000023,1.0179228455000002,Visual,20,-0.01792284550000023,1.0179228455000002,Visual,20,3,0,10,1
97,98,447914.6519270007,1202.7141869993648,True,26,tomorrow,amanha,0.3,False,-0.11971513005000034,1.1197151300500003,Visual,26,-0.11971513005000034,1.1197151300500003,Visual,26,3,0,11,1
98,99,451572.1523130005,953.4781459997176,True,7,elevator,elevador,0.20078125,False,-0.23168664305500042,1.2316866430550004,Visual,7,-0.23168664305500042,1.2316866430550004,Visual,7,3,0,12,1
99,100,454744.536186,1370.54938700021,True,30,far,longe,0.3,True,-0.23168664305500042,1.2316866430550004,Visual,30,-0.23168664305500042,1.2316866430550004,Visual,30,3,0,12,1
100,101,459169.6770040008,14171.958930999564,False,9,employee,empregado,0.2999999999999999,False,-0.23168664305500042,1.2316866430550004,Audio,9,-0.23168664305500042,1.2316866430550004,Audio,9,3,1,12,1
101,102,474429.7278990007,inf,True,30,far,longe,0.3,False,-0.23168664305500042,1.2316866430550004,Visual,30,-0.23168664305500042,1.2316866430550004,Visual,30,3,1,12,1
102,103,478745.4291060003,1448.871182999981,True,29,do,fazer,0.250390625,False,-0.23168664305500042,1.2316866430550004,Visual,29,-0.23168664305500042,1.2316866430550004,Visual,29,3,1,12,1
103,104,481572.2044390004,2667.50789799972,True,25,yesterday,ontem,0.409765625,False,-0.3548553073605005,1.3548553073605005,Visual,25,-0.3548553073605005,1.3548553073605005,Visual,25,3,1,13,1
104,105,486977.6553280008,926.0286029994022,True,8,industry,industria,0.20078125,False,-0.4903408380965506,1.4903408380965506,Visual,8,-0.4903408380965506,1.4903408380965506,Visual,8,3,1,14,1
105,106,490476.7794650006,830.121828999836,True,10,virus,virus,0.20078125,False,-0.4403408380965506,1.4403408380965506,Audio,10,-0.4403408380965506,1.4403408380965506,Audio,10,4,1,14,1
106,107,492980.10942000017,1978.0163830000677,True,31,small,pequeno,0.3,True,-0.4403408380965506,1.4403408380965506,Visual,31,-0.4403408380965506,1.4403408380965506,Visual,31,4,1,14,1
107,108,496719.0605080004,1723.3920810003765,True,32,good,bom,0.3,True,-0.4403408380965506,1.4403408380965506,Visual,32,-0.4403408380965506,1.4403408380965506,Visual,32,4,1,14,1
108,109,500013.72340800025,1547.7660430006215,True,31,small,pequeno,0.3,False,-0.4403408380965506,1.4403408380965506,Visual,31,-0.4403408380965506,1.4403408380965506,Visual,31,4,1,14,1
109,110,503270.54436800064,780.3772189999581,True,32,good,bom,0.3,False,-0.4403408380965506,1.4403408380965506,Visual,32,-0.4403408380965506,1.4403408380965506,Visual,32,4,1,14,1
110,111,505624.19288100046,2302.436791999731,True,33,beautiful,bonito,0.3,True,-0.4403408380965506,1.4403408380965506,Visual,33,-0.4403408380965506,1.4403408380965506,Visual,33,4,1,14,1
111,112,510995.1398280009,1859.1065449991147,True,34,ugly,feio,0.3,True,-0.4403408380965506,1.4403408380965506,Visual,34,-0.4403408380965506,1.4403408380965506,Visual,34,4,1,14,1
112,113,515551.4854330004,1251.8793150002602,True,33,beautiful,bonito,0.3,False,-0.4403408380965506,1.4403408380965506,Visual,33,-0.4403408380965506,1.4403408380965506,Visual,33,4,1,14,1
113,114,521026.4150590001,916.050327999983,True,34,ugly,feio,0.3,False,-0.4403408380965506,1.4403408380965506,Visual,34,-0.4403408380965506,1.4403408380965506,Visual,34,4,1,14,1
114,115,523733.856885,5408.953795000329,True,20,nice to meet you,prazer,0.423828125,False,-0.5843749219062055,1.5843749219062055,Visual,20,-0.5843749219062055,1.5843749219062055,Visual,20,4,1,15,1
115,116,532258.68773,3699.139847000944,True,25,yesterday,ontem,0.41015625,False,-0.7428124140968262,1.7428124140968262,Visual,25,-0.7428124140968262,1.7428124140968262,Visual,25,4,1,16,1
116,117,538202.6966090007,1147.2903919994133,True,30,far,longe,0.250390625,False,-0.7428124140968262,1.7428124140968262,Visual,30,-0.7428124140968262,1.7428124140968262,Visual,30,4,1,16,1
117,118,541347.5874250007,1064.886268000002,True,14,thank you,obrigado,0.20078125,False,-0.9170936555065088,1.9170936555065088,Visual,14,-0.9170936555065088,1.9170936555065088,Visual,14,4,1,17,1
118,119,545258.8120320006,1267.1946539994096,False,16,smile,sorrir,0.349609375,False,-0.9170936555065088,1.9170936555065088,Visual,16,-0.9170936555065088,1.9170936555065088,Visual,16,4,1,17,2
119,120,548434.7600220008,inf,False,17,today,hoje,0.349609375,False,-0.9170936555065088,1.9170936555065088,Visual,17,-0.9170936555065088,1.9170936555065088,Visual,17,4,1,17,3
120,121,564728.8593570001,1292.285933000152,True,31,small,pequeno,0.250390625,False,-0.9170936555065088,1.9170936555065088,Visual,31,-0.9170936555065088,1.9170936555065088,Visual,31,4,1,17,3
121,122,567802.5632020008,1453.580889999983,True,32,good,bom,0.250390625,False,-0.9170936555065088,1.9170936555065088,Visual,32,-0.9170936555065088,1.9170936555065088,Visual,32,4,1,17,3
122,123,571048.8914470007,1063.263821999426,False,33,beautiful,bonito,0.349609375,False,-0.9170936555065088,1.9170936555065088,Visual,33,-0.9170936555065088,1.9170936555065088,Visual,33,4,1,17,4
123,124,574856.3108490007,5210.753663999611,True,13,yes,sim,0.2999999999999999,False,-0.8670936555065087,1.8670936555065087,Audio,13,-0.8670936555065087,1.8670936555065087,Audio,13,5,1,17,4
124,125,581789.8293960006,4848.774989999598,False,34,ugly,feio,0.349609375,False,-0.8670936555065087,1.8670936555065087,Visual,34,-0.8670936555065087,1.8670936555065087,Visual,34,5,1,17,5
125,126,589508.5594380007,1246.356536999927,True,9,employee,empregado,0.250390625,False,-0.8670936555065087,1.8670936555065087,Audio,9,-0.8670936555065087,1.8670936555065087,Audio,9,5,1,17,5
126,127,593072.7919190003,3794.166092000553,True,20,nice to meet you,prazer,0.45,False,-1.0538030210571598,2.05380302105716,Visual,20,-1.0538030210571598,2.05380302105716,Visual,20,5,1,18,5
127,128,600180.4198990003,1044.0880490004783,True,12,investment,investimento,0.20078125,False,-1.2591833231628757,2.2591833231628757,Visual,12,-1.2591833231628757,2.2591833231628757,Visual,12,5,1,19,5
128,129,603735.8767870001,1341.1456650000764,True,15,goodbye,adeus,0.20078125,False,-1.2091833231628757,2.2091833231628755,Audio,15,-1.2091833231628757,2.2091833231628755,Audio,15,6,1,19,5
129,130,607143.6798110008,1195.1176799993264,True,19,hi,oi,0.20078125,False,-1.430101655479163,2.430101655479163,Visual,19,-1.430101655479163,2.430101655479163,Visual,19,6,1,20,5
130,131,609743.8110700004,1698.417370000272,True,25,yesterday,ontem,0.409765625,False,-1.6731118210270792,2.6731118210270792,Visual,25,-1.6731118210270792,2.6731118210270792,Visual,25,6,1,21,5
131,132,614226.6149220004,1379.5397869998123,True,16,smile,sorrir,0.34921875,False,-1.6731118210270792,2.6731118210270792,Visual,16,-1.6731118210270792,2.6731118210270792,Visual,16,6,1,21,5
132,133,617328.1803860009,1498.7142359996217,True,17,today,hoje,0.34921875,False,-1.6731118210270792,2.6731118210270792,Visual,17,-1.6731118210270792,2.6731118210270792,Visual,17,6,1,21,5
133,134,620699.8380960004,1519.4002240004484,True,33,beautiful,bonito,0.3,False,-1.6731118210270792,2.6731118210270792,Visual,33,-1.6731118210270792,2.6731118210270792,Visual,33,6,1,21,5
134,135,624757.1795620006,1050.9294149997877,True,18,airport,aeroporto,0.20078125,False,-1.6231118210270792,2.623111821027079,Audio,18,-1.6231118210270792,2.623111821027079,Audio,18,7,1,21,5
135,136,628470.4018130006,8720.03285699978,False,34,ugly,feio,0.3992187499999999,False,-1.6231118210270792,2.623111821027079,Visual,34,-1.6231118210270792,2.623111821027079,Visual,34,7,1,21,6

