,trial,start_time,rt,correct,fact_id,question,answer,alpha,new,audio_visual_chance,visual_chance,audio_or_visual_fact,fact_id,audio_visual_chance,visual_chance,audio_or_visual_fact,fact_id,correct_audio_visual,wrong_audio_visual,correct_visual,wrong_visual
0,1,30895.53352500002,1407.6461170000111,True,1,car,carro,0.3,True,0.5,0.5,Visual,1,0.5,0.5,Visual,1,0,0,0,0
1,2,34336.951239999966,787.7104700000928,True,1,car,carro,0.3,False,0.5,0.5,Visual,1,0.5,0.5,Visual,1,0,0,0,0
2,3,37557.49186100002,1388.7600210000528,True,2,visit,visita,0.3,True,0.5,0.5,Visual,2,0.5,0.5,Visual,2,0,0,0,0
3,4,40709.78224400005,782.536059999984,True,2,visit,visita,0.3,False,0.5,0.5,Visual,2,0.5,0.5,Visual,2,0,0,0,0
4,5,43459.51118199992,1229.3715750001866,True,3,bread,pao,0.3,True,0.5,0.5,Visual,3,0.5,0.5,Visual,3,0,0,0,0
5,6,46543.74428000006,inf,True,4,blood,sangue,0.3,True,0.5,0.5,Visual,4,0.5,0.5,Visual,4,0,0,0,0
6,7,53966.930691000016,2206.271539000001,True,3,bread,pao,0.3,False,0.5,0.5,Visual,3,0.5,0.5,Visual,3,0,0,0,0
7,8,58795.11584300008,1099.0252779999937,True,4,blood,sangue,0.3,False,0.5,0.5,Visual,4,0.5,0.5,Visual,4,0,0,0,0
8,9,61753.03291599994,1052.913591000106,True,5,insect,inseto,0.3,True,0.5,0.5,Visual,5,0.5,0.5,Visual,5,0,0,0,0
9,10,64808.41230300007,912.170285999986,True,6,exam,exame,0.3,True,0.5,0.5,Visual,6,0.5,0.5,Visual,6,0,0,0,0
10,11,67474.558871,987.34618399998,True,5,insect,inseto,0.3,False,0.5,0.5,Visual,5,0.5,0.5,Visual,5,0,0,0,0
11,12,70438.18336899995,744.6119180001406,True,6,exam,exame,0.3,False,0.5,0.5,Visual,6,0.5,0.5,Visual,6,0,0,0,0
12,13,72909.26437799999,3266.7256639999687,True,7,elevator,elevador,0.3,True,0.5,0.5,Audio,7,0.5,0.5,Audio,7,0,0,0,0
13,14,79867.47897800001,991.6927839999408,True,1,car,carro,0.250390625,False,0.5,0.5,Visual,1,0.5,0.5,Visual,1,0,0,0,0
14,15,82385.76925200004,914.564104999954,True,7,elevator,elevador,0.3,False,0.5,0.5,Audio,7,0.5,0.5,Audio,7,0,0,0,0
15,16,85706.37593200013,1100.0656279998077,False,2,visit,visita,0.349609375,False,0.5,0.5,Visual,2,0.5,0.5,Visual,2,0,0,0,1
16,17,88757.92331799994,972.2557170000508,False,8,industry,industria,0.3,True,0.5,0.5,Visual,8,0.5,0.5,Visual,8,0,0,0,1
17,18,92812.30090200006,975.3843319999723,True,9,employee,empregado,0.3,True,0.5,0.5,Audio,9,0.5,0.5,Audio,9,0,0,0,1
18,19,96249.95599699992,880.0185570000904,True,8,industry,industria,0.3,False,0.5,0.5,Visual,8,0.5,0.5,Visual,8,0,0,0,1
19,20,99579.73487899994,4886.448421000066,False,9,employee,empregado,0.3,False,0.5,0.5,Audio,9,0.5,0.5,Audio,9,0,1,0,1
20,21,105554.825961,985.727382000041,True,3,bread,pao,0.250390625,False,0.5,0.5,Visual,3,0.5,0.5,Visual,3,0,1,0,1
21,22,108328.38437800002,845.1111619999574,True,4,blood,sangue,0.250390625,False,0.5,0.5,Visual,4,0.5,0.5,Visual,4,0,1,0,1
22,23,111241.46157700013,853.4683269999659,True,5,insect,inseto,0.250390625,False,0.5,0.5,Visual,5,0.5,0.5,Visual,5,0,1,0,1
23,24,114000.41441500002,648.8879329999763,True,6,exam,exame,0.250390625,False,0.5,0.5,Visual,6,0.5,0.5,Visual,6,0,1,0,1
24,25,116342.72230800004,775.2033829999564,True,10,virus,virus,0.3,True,0.5,0.5,Visual,10,0.5,0.5,Visual,10,0,1,0,1
25,26,119001.97979700012,1003.54173300002,True,11,dinner,jantar,0.3,True,0.5,0.5,Audio,11,0.5,0.5,Audio,11,0,1,0,1
26,27,121847.71310099996,812.9043799999636,True,10,virus,virus,0.3,False,0.5,0.5,Visual,10,0.5,0.5,Visual,10,0,1,0,1
27,28,124341.03397600006,1106.0980759998492,True,11,dinner,jantar,0.3,False,0.5,0.5,Audio,11,0.5,0.5,Audio,11,0,1,0,1
28,29,127205.87228399995,708.7035100000794,False,2,visit,visita,0.3992187499999999,False,0.5,0.5,Visual,2,0.5,0.5,Visual,2,0,1,0,2
29,30,130729.99796900012,1085.017279999869,True,7,elevator,elevador,0.250390625,False,0.5,0.5,Audio,7,0.5,0.5,Audio,7,0,1,0,2
30,31,134966.55051700008,959.373302999884,True,12,investment,investimento,0.3,True,0.5,0.5,Audio,12,0.5,0.5,Audio,12,0,1,0,2
31,32,138480.01666999995,1245.476850000152,True,13,yes,sim,0.3,True,0.5,0.5,Audio,13,0.5,0.5,Audio,13,0,1,0,2
32,33,141110.10126099997,918.1006380001782,True,12,investment,investimento,0.3,False,0.5,0.5,Audio,12,0.5,0.5,Audio,12,0,1,0,2
33,34,144812.2498780001,1411.407532999874,True,13,yes,sim,0.3,False,0.5,0.5,Audio,13,0.5,0.5,Audio,13,0,1,0,2
34,35,147623.31476600002,808.2441550000221,True,8,industry,industria,0.250390625,False,0.5,0.5,Visual,8,0.5,0.5,Visual,8,0,1,0,2
35,36,150797.07774100007,2052.153675999987,True,9,employee,empregado,0.253515625,False,0.5,0.5,Audio,9,0.5,0.5,Audio,9,0,1,0,2
36,37,155020.81110500012,863.6866429999354,True,2,visit,visita,0.398828125,False,0.5,0.5,Visual,2,0.5,0.5,Visual,2,0,1,0,2
37,38,157777.79830300005,1264.62297700005,True,14,thank you,obrigado,0.3,True,0.5,0.5,Visual,14,0.5,0.5,Visual,14,0,1,0,2
38,39,161585.18404999995,1205.2530099999858,True,15,goodbye,adeus,0.3,True,0.5,0.5,Visual,15,0.5,0.5,Visual,15,0,1,0,2
39,40,165095.66992600003,5531.62967200001,False,14,thank you,obrigado,0.3,False,0.5,0.5,Visual,14,0.5,0.5,Visual,14,0,1,0,3
40,41,172818.2170350001,1888.4342829999223,True,15,goodbye,adeus,0.3,False,0.5,0.5,Visual,15,0.5,0.5,Visual,15,0,1,0,3
41,42,177084.21523800006,794.7321449998999,True,10,virus,virus,0.250390625,False,0.5,0.5,Visual,10,0.5,0.5,Visual,10,0,1,0,3
42,43,179929.85693900005,inf,False,11,dinner,jantar,0.349609375,False,0.5,0.5,Audio,11,0.5,0.5,Audio,11,0,2,0,3
43,44,185565.021741,inf,True,12,investment,investimento,0.349609375,False,0.5,0.5,Audio,12,0.5,0.5,Audio,12,0,2,0,3
44,45,193746.6973339999,953.9455710000766,True,13,yes,sim,0.250390625,False,0.5,0.5,Audio,13,0.5,0.5,Audio,13,0,2,0,3
45,46,196091.22652299996,896.6151800000225,True,16,smile,sorrir,0.3,True,0.5,0.5,Audio,16,0.5,0.5,Audio,16,0,2,0,3
46,47,198768.9345440001,953.7755389999364,True,17,today,hoje,0.3,True,0.5,0.5,Audio,17,0.5,0.5,Audio,17,0,2,0,3
47,48,201607.297802,4951.133606999967,False,16,smile,sorrir,0.3,False,0.5,0.5,Audio,16,0.5,0.5,Audio,16,0,3,0,3
48,49,207648.724531,2398.3012000001327,False,17,today,hoje,0.3,False,0.5,0.5,Audio,17,0.5,0.5,Audio,17,0,4,0,3
49,50,211975.5966089999,2011.6706720000368,False,14,thank you,obrigado,0.349609375,False,0.5,0.5,Visual,14,0.5,0.5,Visual,14,0,4,0,4
50,51,217339.516906,943.584174000076,True,2,visit,visita,0.3984375,False,0.5,0.5,Visual,2,0.5,0.5,Visual,2,0,4,0,4
51,52,219964.04780500007,3789.439074000024,False,11,dinner,jantar,0.3992187499999999,False,0.5,0.5,Audio,11,0.5,0.5,Audio,11,0,5,0,4
52,53,224840.40115199992,1340.1644220000308,True,15,goodbye,adeus,0.250390625,False,0.5,0.5,Visual,15,0.5,0.5,Visual,15,0,5,0,4
53,54,228226.278308,901.9482549999956,True,12,investment,investimento,0.3,False,0.5,0.5,Audio,12,0.5,0.5,Audio,12,1,5,0,4
54,55,231953.74605100005,943.4613920000264,True,18,airport,aeroporto,0.3,True,0.5,0.5,Audio,18,0.5,0.5,Audio,18,1,5,0,4
55,56,235354.745442,1029.6772609999753,True,19,hi,oi,0.3,True,0.5,0.5,Audio,19,0.5,0.5,Audio,19,1,5,0,4
56,57,237799.3181720001,1088.3405469999125,True,18,airport,aeroporto,0.3,False,0.5,0.5,Audio,18,0.5,0.5,Audio,18,1,5,0,4
57,58,240851.7462960001,2772.4323229999573,False,19,hi,oi,0.3,False,0.5,0.5,Audio,19,0.5,0.5,Audio,19,1,6,0,4
58,59,245674.801682,4616.616112999967,False,16,smile,sorrir,0.349609375,False,0.5,0.5,Audio,16,0.5,0.5,Audio,16,1,7,0,4
59,60,252340.56357200007,2499.8565490000183,True,11,dinner,jantar,0.4152343749999999,False,0.5,0.5,Audio,11,0.5,0.5,Audio,11,1,7,0,4
60,61,256650.068878,4780.242045000021,False,14,thank you,obrigado,0.3992187499999999,False,0.5,0.5,Visual,14,0.5,0.5,Visual,14,1,7,0,5
61,62,264036.31967799994,4812.12215000001,False,17,today,hoje,0.349609375,False,0.5,0.5,Audio,17,0.5,0.5,Audio,17,1,8,0,5
62,63,269935.132994,1227.5624680001056,True,20,nice to meet you,prazer,0.3,True,0.5,0.5,Audio,20,0.5,0.5,Audio,20,1,8,0,5
63,64,274540.605506,1017.5595170001616,True,22,how are you,tudo bem,0.3,True,0.5,0.5,Visual,22,0.5,0.5,Visual,22,1,8,0,5
64,65,278763.05123199994,1542.9333900001366,False,20,nice to meet you,prazer,0.3,False,0.5,0.5,Audio,20,0.5,0.5,Audio,20,1,9,0,5
65,66,283047.54010800004,871.4376049999846,True,22,how are you,tudo bem,0.3,False,0.5,0.5,Visual,22,0.5,0.5,Visual,22,1,9,0,5
66,67,286734.01664199994,930.6744019999752,True,18,airport,aeroporto,0.250390625,False,0.5,0.5,Audio,18,0.5,0.5,Audio,18,1,9,0,5
67,68,289698.981342,1835.6589319998748,True,19,hi,oi,0.250390625,False,0.5,0.5,Audio,19,0.5,0.5,Audio,19,1,9,0,5
68,69,292984.89057000005,2238.204316000105,True,14,thank you,obrigado,0.398828125,False,0.5,0.5,Visual,14,0.5,0.5,Visual,14,1,9,0,5
69,70,297686.04838600004,2263.64161900006,True,16,smile,sorrir,0.34921875,False,0.5,0.5,Audio,16,0.5,0.5,Audio,16,1,9,0,5
70,71,301688.51727700006,2013.0474810000744,True,11,dinner,jantar,0.4140624999999999,False,0.5,0.5,Audio,11,0.5,0.5,Audio,11,1,9,0,5
71,72,305582.945889,968.5619960000622,True,2,visit,visita,0.348828125,False,0.5,0.5,Visual,2,0.5,0.5,Visual,2,1,9,1,5
72,73,308360.4923519999,7994.369802000176,False,17,today,hoje,0.3992187499999999,False,0.5,0.5,Audio,17,0.5,0.5,Audio,17,1,10,1,5
73,74,317441.1949,897.94205100002,True,23,week,semana,0.3,True,0.5,0.5,Audio,23,0.5,0.5,Audio,23,1,10,1,5
74,75,320088.24539500003,959.808086000092,True,24,year,ano,0.3,True,0.5,0.5,Audio,24,0.5,0.5,Audio,24,1,10,1,5
75,76,322697.896121,1761.6240090000792,True,23,week,semana,0.3,False,0.5,0.5,Audio,23,0.5,0.5,Audio,23,1,10,1,5
76,77,326104.8069779999,707.2560630001826,True,24,year,ano,0.3,False,0.5,0.5,Audio,24,0.5,0.5,Audio,24,1,10,1,5
77,78,328450.926447,3273.600498999934,False,20,nice to meet you,prazer,0.349609375,False,0.5,0.5,Audio,20,0.5,0.5,Audio,20,1,11,1,5
78,79,333308.8632870001,inf,True,22,how are you,tudo bem,0.349609375,False,0.5,0.5,Visual,22,0.5,0.5,Visual,22,1,11,1,5
79,80,341612.5014480001,43.95289099990623,False,17,today,hoje,0.4488281249999999,False,0.5,0.5,Audio,17,0.5,0.5,Audio,17,1,12,1,5
80,81,342745.7011490001,166.59387300000526,False,1,car,carro,0.2999999999999999,False,0.5,0.5,Visual,1,0.5,0.5,Visual,1,1,12,1,6
81,82,345035.8643510001,1205.46330199996,True,25,yesterday,ontem,0.3,True,0.5,0.5,Visual,25,0.5,0.5,Visual,25,1,12,1,6
82,83,349008.75843500014,895.606012999895,True,26,tomorrow,amanha,0.3,True,0.5,0.5,Visual,26,0.5,0.5,Visual,26,1,12,1,6
83,84,352092.14793399995,419.6265870000352,False,25,yesterday,ontem,0.3,False,0.5,0.5,Visual,25,0.5,0.5,Visual,25,1,12,1,7
84,85,354580.889527,1164.47696,True,26,tomorrow,amanha,0.3,False,0.5,0.5,Visual,26,0.5,0.5,Visual,26,1,12,1,7
85,86,357928.3942679999,3016.483516000095,True,14,thank you,obrigado,0.4421874999999999,False,0.5,0.5,Visual,14,0.5,0.5,Visual,14,1,12,1,7
86,87,363545.9687970001,6817.267409999855,False,17,today,hoje,0.4742187499999999,False,0.5,0.5,Audio,17,0.5,0.5,Audio,17,1,13,1,7
87,88,372029.91477,830.3725089999498,True,23,week,semana,0.250390625,False,0.5,0.5,Audio,23,0.5,0.5,Audio,23,1,13,1,7
88,89,374501.066328,1972.318351999973,False,11,dinner,jantar,0.4152343749999999,False,0.5,0.5,Audio,11,0.5,0.5,Audio,11,1,14,1,7
89,90,378171.6497530001,1472.8525209997897,True,24,year,ano,0.250390625,False,0.5,0.5,Audio,24,0.5,0.5,Audio,24,1,14,1,7
90,91,381271.776441,3991.6123100001714,False,20,nice to meet you,prazer,0.3992187499999999,False,0.5,0.5,Audio,20,0.5,0.5,Audio,20,1,15,1,7
91,92,387160.165866,1692.062692000065,True,22,how are you,tudo bem,0.3,False,0.44999999999999996,0.55,Visual,22,0.44999999999999996,0.55,Visual,22,1,15,2,7
92,93,393584.293311,2195.371280000021,False,14,thank you,obrigado,0.445703125,False,0.44999999999999996,0.55,Visual,14,0.44999999999999996,0.55,Visual,14,1,15,2,8
93,94,397909.9926260001,7461.67458199989,False,17,today,hoje,0.4746093749999999,False,0.44999999999999996,0.55,Audio,17,0.44999999999999996,0.55,Audio,17,1,16,2,8
94,95,407174.037067,1763.0498470000457,False,16,smile,sorrir,0.398828125,False,0.44999999999999996,0.55,Audio,16,0.44999999999999996,0.55,Audio,16,1,17,2,8
95,96,410926.945406,970.5563090001232,False,26,tomorrow,amanha,0.349609375,False,0.44999999999999996,0.55,Visual,26,0.44999999999999996,0.55,Visual,26,1,17,2,9
96,97,413558.8417640001,2128.729111999972,False,25,yesterday,ontem,0.349609375,False,0.44999999999999996,0.55,Visual,25,0.44999999999999996,0.55,Visual,25,1,17,2,10
97,98,417281.691103,4137.868044000003,False,20,nice to meet you,prazer,0.4488281249999999,False,0.44999999999999996,0.55,Audio,20,0.44999999999999996,0.55,Audio,20,1,18,2,10
98,99,422510.037436,1074.7774060000663,True,5,insect,inseto,0.20078125,False,0.3949999999999999,0.6050000000000001,Visual,5,0.3949999999999999,0.6050000000000001,Visual,5,1,18,3,10
99,100,425686.449889,676.5096410001279,True,6,exam,exame,0.20078125,False,0.3344999999999999,0.6655000000000001,Visual,6,0.3344999999999999,0.6655000000000001,Visual,6,1,18,4,10
100,101,428096.734063,1060.8501099999994,True,3,bread,pao,0.20078125,False,0.2679499999999999,0.7320500000000001,Visual,3,0.2679499999999999,0.7320500000000001,Visual,3,1,18,5,10
101,102,431171.8144199999,inf,False,17,today,hoje,0.521875,False,0.2679499999999999,0.7320500000000001,Audio,17,0.2679499999999999,0.7320500000000001,Audio,17,1,19,5,10
102,103,436930.111595,950.2781390001765,False,20,nice to meet you,prazer,0.4617187499999999,False,0.2679499999999999,0.7320500000000001,Audio,20,0.2679499999999999,0.7320500000000001,Audio,20,1,20,5,10
103,104,440512.519426,inf,True,16,smile,sorrir,0.4304687499999999,False,0.2679499999999999,0.7320500000000001,Audio,16,0.2679499999999999,0.7320500000000001,Audio,16,1,20,5,10
104,105,445850.3356179999,1570.1641090002377,False,14,thank you,obrigado,0.46875,False,0.2679499999999999,0.7320500000000001,Visual,14,0.2679499999999999,0.7320500000000001,Visual,14,1,20,5,11
105,106,450658.751463,1314.938410999952,False,17,today,hoje,0.571484375,False,0.2679499999999999,0.7320500000000001,Audio,17,0.2679499999999999,0.7320500000000001,Audio,17,1,21,5,11
106,107,454055.1469899999,7282.734063000127,False,26,tomorrow,amanha,0.3992187499999999,False,0.2679499999999999,0.7320500000000001,Visual,26,0.2679499999999999,0.7320500000000001,Visual,26,1,21,5,12
107,108,463618.5767920001,1593.4444209999638,False,17,today,hoje,0.596875,False,0.2679499999999999,0.7320500000000001,Audio,17,0.2679499999999999,0.7320500000000001,Audio,17,1,22,5,12
108,109,468799.16449100006,3607.2127849999815,False,25,yesterday,ontem,0.3992187499999999,False,0.2679499999999999,0.7320500000000001,Visual,25,0.2679499999999999,0.7320500000000001,Visual,25,1,22,5,13
109,110,474041.112746,inf,False,11,dinner,jantar,0.4648437499999999,False,0.2679499999999999,0.7320500000000001,Audio,11,0.2679499999999999,0.7320500000000001,Audio,11,1,23,5,13
110,111,483174.821759,inf,False,17,today,hoje,0.597265625,False,0.2679499999999999,0.7320500000000001,Audio,17,0.2679499999999999,0.7320500000000001,Audio,17,1,24,5,13
111,112,490179.476755,9101.380106000055,False,20,nice to meet you,prazer,0.4621093749999999,False,0.2679499999999999,0.7320500000000001,Audio,20,0.2679499999999999,0.7320500000000001,Audio,20,1,25,5,13
112,113,501124.638604,2733.721193000092,True,16,smile,sorrir,0.431640625,False,0.2679499999999999,0.7320500000000001,Audio,16,0.2679499999999999,0.7320500000000001,Audio,16,1,25,5,13
113,114,505621.8413070001,inf,False,17,today,hoje,0.6468750000000001,False,0.2679499999999999,0.7320500000000001,Audio,17,0.2679499999999999,0.7320500000000001,Audio,17,1,26,5,13
114,115,513032.404498,2531.2151089999825,False,26,tomorrow,amanha,0.4488281249999999,False,0.2679499999999999,0.7320500000000001,Visual,26,0.2679499999999999,0.7320500000000001,Visual,26,1,26,5,14
115,116,517735.888206,2304.743209999986,True,17,today,hoje,0.6464843750000001,False,0.2679499999999999,0.7320500000000001,Audio,17,0.2679499999999999,0.7320500000000001,Audio,17,1,26,5,14
116,117,521794.8548750001,7335.52508000005,True,14,thank you,obrigado,0.5183593750000001,False,0.2679499999999999,0.7320500000000001,Visual,14,0.2679499999999999,0.7320500000000001,Visual,14,1,26,5,14
117,118,532177.865531,3796.431424000068,True,11,dinner,jantar,0.4894531249999999,False,0.2679499999999999,0.7320500000000001,Audio,11,0.2679499999999999,0.7320500000000001,Audio,11,1,26,5,14
118,119,537706.388029,4291.883314999868,False,17,today,hoje,0.6960937500000002,False,0.2679499999999999,0.7320500000000001,Audio,17,0.2679499999999999,0.7320500000000001,Audio,17,1,27,5,14
119,120,545000.6255440001,inf,True,25,yesterday,ontem,0.4449218749999999,False,0.2679499999999999,0.7320500000000001,Visual,25,0.2679499999999999,0.7320500000000001,Visual,25,1,27,5,14
120,121,554925.6233389999,866.789889000007,True,17,today,hoje,0.6957031250000002,False,0.2679499999999999,0.7320500000000001,Audio,17,0.2679499999999999,0.7320500000000001,Audio,17,1,27,5,14
121,122,557630.829877,1484.418192000012,True,14,thank you,obrigado,0.5179687500000001,False,0.2679499999999999,0.7320500000000001,Visual,14,0.2679499999999999,0.7320500000000001,Visual,14,1,27,5,14
122,123,561583.6474479999,inf,False,26,tomorrow,amanha,0.4679687499999999,False,0.2679499999999999,0.7320500000000001,Visual,26,0.2679499999999999,0.7320500000000001,Visual,26,1,27,5,15
123,124,569252.6194070001,inf,False,17,today,hoje,0.7078125000000003,False,0.2679499999999999,0.7320500000000001,Audio,17,0.2679499999999999,0.7320500000000001,Audio,17,1,28,5,15
124,125,580084.584012,6031.610149000073,False,20,nice to meet you,prazer,0.51171875,False,0.2679499999999999,0.7320500000000001,Audio,20,0.2679499999999999,0.7320500000000001,Audio,20,1,29,5,15
125,126,588628.685527,3409.596019000048,False,17,today,hoje,0.7503906250000003,False,0.2679499999999999,0.7320500000000001,Audio,17,0.2679499999999999,0.7320500000000001,Audio,17,1,30,5,15
126,127,594284.291072,7870.18366999994,False,25,yesterday,ontem,0.4507812499999999,False,0.2679499999999999,0.7320500000000001,Visual,25,0.2679499999999999,0.7320500000000001,Visual,25,1,30,5,16
127,128,603788.8616990001,1360.1330019999295,True,17,today,hoje,0.7500000000000003,False,0.2679499999999999,0.7320500000000001,Audio,17,0.2679499999999999,0.7320500000000001,Audio,17,1,30,5,16
128,129,607037.309955,1056.0032850001007,True,11,dinner,jantar,0.4890624999999999,False,0.2679499999999999,0.7320500000000001,Audio,11,0.2679499999999999,0.7320500000000001,Audio,11,1,30,5,16
129,130,609889.337393,1030.4459710000085,True,17,today,hoje,0.7003906250000003,False,0.2679499999999999,0.7320500000000001,Audio,17,0.2679499999999999,0.7320500000000001,Audio,17,1,30,5,16
130,131,612627.478639,852.5831640001852,False,20,nice to meet you,prazer,0.536328125,False,0.2679499999999999,0.7320500000000001,Audio,20,0.2679499999999999,0.7320500000000001,Audio,20,1,31,5,16
131,132,615619.0155639999,1645.337010000134,True,14,thank you,obrigado,0.5175781250000001,False,0.19474499999999995,0.805255,Visual,14,0.19474499999999995,0.805255,Visual,14,1,31,6,16
132,133,619711.46664,2239.2288339999504,True,26,tomorrow,amanha,0.4660156249999999,False,0.19474499999999995,0.805255,Visual,26,0.19474499999999995,0.805255,Visual,26,1,31,6,16
133,134,624087.031883,1760.8507009999594,True,16,smile,sorrir,0.42734375,False,0.24474499999999993,0.755255,Audio,16,0.24474499999999993,0.755255,Audio,16,2,31,6,16
134,135,627596.0582590001,934.9930369999493,True,1,car,carro,0.250390625,False,0.24474499999999993,0.755255,Visual,1,0.24474499999999993,0.755255,Visual,1,2,31,6,16
135,136,630102.395781,1066.044483000063,True,12,investment,investimento,0.2503906250000001,False,0.2947449999999999,0.7052550000000001,Audio,12,0.2947449999999999,0.7052550000000001,Audio,12,3,31,6,16

