,trial,start_time,rt,correct,fact_id,question,answer,alpha,new,audio_visual_chance,visual_chance,audio_or_visual_fact,fact_id,audio_visual_chance,visual_chance,audio_or_visual_fact,fact_id,correct_audio_visual,wrong_audio_visual,correct_visual,wrong_visual
0,1,18675.474573999963,2812.862472000008,True,1,car,carro,0.3,True,0.5,0.5,Visual,1,0.5,0.5,Visual,1,0,0,0,0
1,2,23921.14687100002,1037.6793460000044,True,1,car,carro,0.3,False,0.5,0.5,Visual,1,0.5,0.5,Visual,1,0,0,0,0
2,3,26788.695620999988,1413.6771610001233,True,2,visit,visita,0.3,True,0.5,0.5,Visual,2,0.5,0.5,Visual,2,0,0,0,0
3,4,30361.65307600004,886.1209730000628,True,2,visit,visita,0.3,False,0.5,0.5,Visual,2,0.5,0.5,Visual,2,0,0,0,0
4,5,33076.24217400007,1130.4624259998964,True,3,bread,pao,0.3,True,0.5,0.5,Visual,3,0.5,0.5,Visual,3,0,0,0,0
5,6,36224.19231799995,3037.359429000164,True,4,blood,sangue,0.3,True,0.5,0.5,Audio,4,0.5,0.5,Audio,4,0,0,0,0
6,7,42747.59839600006,1347.936848000012,True,3,bread,pao,0.3,False,0.5,0.5,Visual,3,0.5,0.5,Visual,3,0,0,0,0
7,8,46772.1651920001,1322.834200999976,True,4,blood,sangue,0.3,False,0.5,0.5,Audio,4,0.5,0.5,Audio,4,0,0,0,0
8,9,53944.55051399996,1651.607086999997,True,5,insect,inseto,0.3,True,0.5,0.5,Visual,5,0.5,0.5,Visual,5,0,0,0,0
9,10,58434.68609800016,1122.4086449999522,True,6,exam,exame,0.3,True,0.5,0.5,Visual,6,0.5,0.5,Visual,6,0,0,0,0
10,11,61503.45676100005,1035.625564999922,True,5,insect,inseto,0.3,False,0.5,0.5,Visual,5,0.5,0.5,Visual,5,0,0,0,0
11,12,64795.92489000016,1018.3435499998304,True,6,exam,exame,0.3,False,0.5,0.5,Visual,6,0.5,0.5,Visual,6,0,0,0,0
12,13,67654.39929700005,753.6471309999761,True,1,car,carro,0.250390625,False,0.5,0.5,Visual,1,0.5,0.5,Visual,1,0,0,0,0
13,14,70092.23325100016,1031.5138169998972,True,2,visit,visita,0.250390625,False,0.5,0.5,Visual,2,0.5,0.5,Visual,2,0,0,0,0
14,15,72911.9078220001,1336.5292649998592,True,7,elevator,elevador,0.3,True,0.5,0.5,Visual,7,0.5,0.5,Visual,7,0,0,0,0
15,16,76598.3140830001,1311.7621769999823,True,8,industry,industria,0.3,True,0.5,0.5,Audio,8,0.5,0.5,Audio,8,0,0,0,0
16,17,80319.50445999997,893.429626000172,True,7,elevator,elevador,0.3,False,0.5,0.5,Visual,7,0.5,0.5,Visual,7,0,0,0,0
17,18,83783.19691800016,942.9146769998624,True,8,industry,industria,0.3,False,0.5,0.5,Audio,8,0.5,0.5,Audio,8,0,0,0,0
18,19,86933.39967300017,2277.0699669999885,True,9,employee,empregado,0.3,True,0.5,0.5,Visual,9,0.5,0.5,Visual,9,0,0,0,0
19,20,93009.63533200002,1149.0350750000216,True,3,bread,pao,0.250390625,False,0.5,0.5,Visual,3,0.5,0.5,Visual,3,0,0,0,0
20,21,96130.43138600004,2550.96314399998,True,9,employee,empregado,0.3,False,0.5,0.5,Visual,9,0.5,0.5,Visual,9,0,0,0,0
21,22,101375.42724100011,1692.8997649999949,True,4,blood,sangue,0.250390625,False,0.5,0.5,Audio,4,0.5,0.5,Audio,4,0,0,0,0
22,23,104950.457401,1247.97337900009,True,10,virus,virus,0.3,True,0.5,0.5,Audio,10,0.5,0.5,Audio,10,0,0,0,0
23,24,108649.89774300013,1202.0333870000322,True,5,insect,inseto,0.250390625,False,0.5,0.5,Visual,5,0.5,0.5,Visual,5,0,0,0,0
24,25,111885.39208099995,836.3768290000735,True,10,virus,virus,0.3,False,0.5,0.5,Audio,10,0.5,0.5,Audio,10,0,0,0,0
25,26,114474.57597800008,752.4474489998684,True,6,exam,exame,0.250390625,False,0.5,0.5,Visual,6,0.5,0.5,Visual,6,0,0,0,0
26,27,117075.0359860001,1979.1570889999568,True,11,dinner,jantar,0.3,True,0.5,0.5,Audio,11,0.5,0.5,Audio,11,0,0,0,0
27,28,123397.311317,1373.6770880000258,True,12,investment,investimento,0.3,True,0.5,0.5,Audio,12,0.5,0.5,Audio,12,0,0,0,0
28,29,128227.89179100005,1670.634286999979,True,11,dinner,jantar,0.3,False,0.5,0.5,Audio,11,0.5,0.5,Audio,11,0,0,0,0
29,30,131782.66347099998,1016.0958779999928,True,12,investment,investimento,0.3,False,0.5,0.5,Audio,12,0.5,0.5,Audio,12,0,0,0,0
30,31,135787.68933900006,1081.261029999936,True,7,elevator,elevador,0.250390625,False,0.5,0.5,Visual,7,0.5,0.5,Visual,7,0,0,0,0
31,32,139239.84417500015,949.8511629999266,True,8,industry,industria,0.250390625,False,0.5,0.5,Audio,8,0.5,0.5,Audio,8,0,0,0,0
32,33,143049.68508499998,2047.3502189999851,True,9,employee,empregado,0.262890625,False,0.5,0.5,Visual,9,0.5,0.5,Visual,9,0,0,0,0
33,34,147608.64388899994,1459.1856530000805,True,13,yes,sim,0.3,True,0.5,0.5,Visual,13,0.5,0.5,Visual,13,0,0,0,0
34,35,152575.47990000012,2011.9746729999315,True,14,thank you,obrigado,0.3,True,0.5,0.5,Audio,14,0.5,0.5,Audio,14,0,0,0,0
35,36,157122.81925800018,1133.6022009997978,True,13,yes,sim,0.3,False,0.5,0.5,Visual,13,0.5,0.5,Visual,13,0,0,0,0
36,37,159734.99831599998,2729.435476000159,True,14,thank you,obrigado,0.3,False,0.5,0.5,Audio,14,0.5,0.5,Audio,14,0,0,0,0
37,38,164883.47602600016,1056.777400999854,True,10,virus,virus,0.250390625,False,0.5,0.5,Audio,10,0.5,0.5,Audio,10,0,0,0,0
38,39,167660.2868120001,1941.157224999857,True,15,goodbye,adeus,0.3,True,0.5,0.5,Visual,15,0.5,0.5,Visual,15,0,0,0,0
39,40,171839.9378060001,1631.4714959998964,True,16,smile,sorrir,0.3,True,0.5,0.5,Audio,16,0.5,0.5,Audio,16,0,0,0,0
40,41,177522.539543,3247.909103999962,True,15,goodbye,adeus,0.3,False,0.5,0.5,Visual,15,0.5,0.5,Visual,15,0,0,0,0
41,42,183317.58399800013,1857.3808119999885,True,16,smile,sorrir,0.3,False,0.5,0.5,Audio,16,0.5,0.5,Audio,16,0,0,0,0
42,43,187411.051328,1772.7943610000366,True,11,dinner,jantar,0.250390625,False,0.5,0.5,Audio,11,0.5,0.5,Audio,11,0,0,0,0
43,44,191275.62834700008,1054.6990800000783,True,12,investment,investimento,0.250390625,False,0.5,0.5,Audio,12,0.5,0.5,Audio,12,0,0,0,0
44,45,195084.648281,2212.7383070001088,True,17,today,hoje,0.3,True,0.5,0.5,Audio,17,0.5,0.5,Audio,17,0,0,0,0
45,46,202638.70719400008,1499.304529999994,True,18,airport,aeroporto,0.3,True,0.5,0.5,Visual,18,0.5,0.5,Visual,18,0,0,0,0
46,47,206465.130179,2084.976691000076,True,17,today,hoje,0.3,False,0.5,0.5,Audio,17,0.5,0.5,Audio,17,0,0,0,0
47,48,210617.26730100007,1082.5430120000965,True,18,airport,aeroporto,0.3,False,0.5,0.5,Visual,18,0.5,0.5,Visual,18,0,0,0,0
48,49,213692.079896,1139.5916830001806,True,13,yes,sim,0.250390625,False,0.5,0.5,Visual,13,0.5,0.5,Visual,13,0,0,0,0
49,50,216272.72794400004,1060.8516289999243,True,14,thank you,obrigado,0.250390625,False,0.5,0.5,Audio,14,0.5,0.5,Audio,14,0,0,0,0
50,51,219729.21258600013,1330.8133230000385,True,19,hi,oi,0.3,True,0.5,0.5,Visual,19,0.5,0.5,Visual,19,0,0,0,0
51,52,223354.509132,1643.3011560000014,True,20,nice to meet you,prazer,0.3,True,0.5,0.5,Visual,20,0.5,0.5,Visual,20,0,0,0,0
52,53,232818.3120210001,1310.0314870000584,True,19,hi,oi,0.3,False,0.5,0.5,Visual,19,0.5,0.5,Visual,19,0,0,0,0
53,54,235632.01852300015,1695.495058999979,True,20,nice to meet you,prazer,0.3,False,0.5,0.5,Visual,20,0.5,0.5,Visual,20,0,0,0,0
54,55,240915.559904,1436.2950899999123,True,15,goodbye,adeus,0.250390625,False,0.5,0.5,Visual,15,0.5,0.5,Visual,15,0,0,0,0
55,56,244343.076401,1365.4995840001793,True,16,smile,sorrir,0.250390625,False,0.5,0.5,Audio,16,0.5,0.5,Audio,16,0,0,0,0
56,57,247549.829546,1790.0703669999784,True,22,how are you,tudo bem,0.3,True,0.5,0.5,Visual,22,0.5,0.5,Visual,22,0,0,0,0
57,58,262541.12197200017,2492.1887699999497,True,17,today,hoje,0.305078125,False,0.5,0.5,Audio,17,0.5,0.5,Audio,17,0,0,0,0
58,59,266919.42482700007,1687.3537199998973,True,22,how are you,tudo bem,0.3,False,0.5,0.5,Visual,22,0.5,0.5,Visual,22,0,0,0,0
59,60,271287.587001,1016.4232730001096,True,18,airport,aeroporto,0.250390625,False,0.5,0.5,Visual,18,0.5,0.5,Visual,18,0,0,0,0
60,61,274190.29296600004,1773.850565999921,True,23,week,semana,0.3,True,0.5,0.5,Visual,23,0.5,0.5,Visual,23,0,0,0,0
61,62,278754.75233,1346.7754380000988,True,24,year,ano,0.3,True,0.5,0.5,Visual,24,0.5,0.5,Visual,24,0,0,0,0
62,63,281628.34136900003,1071.163212000101,True,23,week,semana,0.3,False,0.5,0.5,Visual,23,0.5,0.5,Visual,23,0,0,0,0
63,64,284405.33644100017,831.0606119998265,True,24,year,ano,0.3,False,0.5,0.5,Visual,24,0.5,0.5,Visual,24,0,0,0,0
64,65,286866.014983,1764.079063000041,True,19,hi,oi,0.250390625,False,0.5,0.5,Visual,19,0.5,0.5,Visual,19,0,0,0,0
65,66,290083.0202700001,2347.216749999905,False,20,nice to meet you,prazer,0.349609375,False,0.5,0.5,Visual,20,0.5,0.5,Visual,20,0,0,0,1
66,67,295392.774446,4631.424182999996,True,25,yesterday,ontem,0.3,True,0.5,0.5,Visual,25,0.5,0.5,Visual,25,0,0,0,1
67,68,305376.785634,5556.50529400009,False,26,tomorrow,amanha,0.3,True,0.5,0.5,Audio,26,0.5,0.5,Audio,26,0,0,0,1
68,69,314323.963887,inf,True,25,yesterday,ontem,0.3,False,0.5,0.5,Visual,25,0.5,0.5,Visual,25,0,0,0,1
69,70,323757.83633600007,3014.24210600002,True,26,tomorrow,amanha,0.3,False,0.5,0.5,Audio,26,0.5,0.5,Audio,26,0,0,0,1
70,71,328881.2934120001,3367.5394799999776,True,22,how are you,tudo bem,0.349609375,False,0.5,0.5,Visual,22,0.5,0.5,Visual,22,0,0,0,1
71,72,336177.40037199995,1113.3937630002038,True,23,week,semana,0.250390625,False,0.5,0.5,Visual,23,0.5,0.5,Visual,23,0,0,0,1
72,73,338961.180586,1264.0182740001474,True,24,year,ano,0.250390625,False,0.5,0.5,Visual,24,0.5,0.5,Visual,24,0,0,0,1
73,74,341755.37413000007,2012.6194820000087,True,20,nice to meet you,prazer,0.3,False,0.5,0.5,Visual,20,0.5,0.5,Visual,20,0,0,0,1
74,75,346927.0965160001,1106.563220000011,True,2,visit,visita,0.20078125,False,0.44999999999999996,0.55,Visual,2,0.44999999999999996,0.55,Visual,2,0,0,1,1
75,76,349780.238305,1117.332298000052,True,1,car,carro,0.20078125,False,0.3949999999999999,0.6050000000000001,Visual,1,0.3949999999999999,0.6050000000000001,Visual,1,0,0,2,1
76,77,352546.7709940001,1539.9785929999198,True,27,can,poder,0.3,True,0.3949999999999999,0.6050000000000001,Visual,27,0.3949999999999999,0.6050000000000001,Visual,27,0,0,2,1
77,78,361630.692064,1495.4423440001556,True,28,use,usar,0.3,True,0.3949999999999999,0.6050000000000001,Audio,28,0.3949999999999999,0.6050000000000001,Audio,28,0,0,2,1
78,79,364606.858307,2145.8373820001143,True,27,can,poder,0.3,False,0.3949999999999999,0.6050000000000001,Visual,27,0.3949999999999999,0.6050000000000001,Visual,27,0,0,2,1
79,80,368359.5730660002,1416.325718999782,True,28,use,usar,0.3,False,0.3949999999999999,0.6050000000000001,Audio,28,0.3949999999999999,0.6050000000000001,Audio,28,0,0,2,1
80,81,371232.08479100006,2299.7253079999937,True,25,yesterday,ontem,0.2878906249999999,False,0.3949999999999999,0.6050000000000001,Visual,25,0.3949999999999999,0.6050000000000001,Visual,25,0,0,2,1
81,82,376198.523886,1919.1181010000876,True,22,how are you,tudo bem,0.3,False,0.3344999999999999,0.6655000000000001,Visual,22,0.3344999999999999,0.6655000000000001,Visual,22,0,0,3,1
82,83,380690.838024,1577.844977000088,True,17,today,hoje,0.25546875,False,0.3844999999999999,0.6155000000000002,Audio,17,0.3844999999999999,0.6155000000000002,Audio,17,1,0,3,1
83,84,384389.4783370001,1311.304513999843,True,26,tomorrow,amanha,0.250390625,False,0.3844999999999999,0.6155000000000002,Audio,26,0.3844999999999999,0.6155000000000002,Audio,26,1,0,3,1
84,85,388086.915328,1519.96149899991,True,9,employee,empregado,0.21328125,False,0.32294999999999985,0.6770500000000002,Visual,9,0.32294999999999985,0.6770500000000002,Visual,9,1,0,4,1
85,86,391880.320775,4715.290199000039,True,29,do,fazer,0.3,True,0.32294999999999985,0.6770500000000002,Audio,29,0.32294999999999985,0.6770500000000002,Audio,29,1,0,4,1
86,87,398211.85210400017,2976.448295999958,True,30,far,longe,0.3,True,0.32294999999999985,0.6770500000000002,Audio,30,0.32294999999999985,0.6770500000000002,Audio,30,1,0,4,1
87,88,402609.719803,1980.426250000135,True,29,do,fazer,0.3,False,0.32294999999999985,0.6770500000000002,Audio,29,0.32294999999999985,0.6770500000000002,Audio,29,1,0,4,1
88,89,406015.24360300007,inf,True,30,far,longe,0.3,False,0.32294999999999985,0.6770500000000002,Audio,30,0.32294999999999985,0.6770500000000002,Audio,30,1,0,4,1
89,90,421232.10909700015,925.9270359998336,True,28,use,usar,0.250390625,False,0.32294999999999985,0.6770500000000002,Audio,28,0.32294999999999985,0.6770500000000002,Audio,28,1,0,4,1
90,91,423526.635748,3307.496778000088,True,27,can,poder,0.349609375,False,0.32294999999999985,0.6770500000000002,Visual,27,0.32294999999999985,0.6770500000000002,Visual,27,1,0,4,1
91,92,428380.19389200007,866.2689170000958,True,6,exam,exame,0.20078125,False,0.25524499999999983,0.7447550000000002,Visual,6,0.25524499999999983,0.7447550000000002,Visual,6,1,0,5,1
92,93,431102.9744780001,979.7433599999058,True,5,insect,inseto,0.20078125,False,0.1807694999999998,0.8192305000000002,Visual,5,0.1807694999999998,0.8192305000000002,Visual,5,1,0,6,1
93,94,434053.279876,1692.5162130001115,True,3,bread,pao,0.20078125,False,0.09884644999999981,0.9011535500000002,Visual,3,0.09884644999999981,0.9011535500000002,Visual,3,1,0,7,1
94,95,437479.012193,1277.727488000004,True,4,blood,sangue,0.20078125,False,0.1488464499999998,0.8511535500000003,Audio,4,0.1488464499999998,0.8511535500000003,Audio,4,2,0,7,1
95,96,440523.602905,1033.5684400001774,True,7,elevator,elevador,0.20078125,False,0.06373109499999974,0.9362689050000003,Visual,7,0.06373109499999974,0.9362689050000003,Visual,7,2,0,8,1
96,97,443777.827035,896.3149800001993,True,8,industry,industria,0.20078125,False,0.11373109499999974,0.8862689050000002,Audio,8,0.11373109499999974,0.8862689050000002,Audio,8,3,0,8,1
97,98,447585.254736,1910.3367239999932,True,31,small,pequeno,0.3,True,0.11373109499999974,0.8862689050000002,Visual,31,0.11373109499999974,0.8862689050000002,Visual,31,3,0,8,1
98,99,451334.3502730001,1527.280933999922,True,29,do,fazer,0.250390625,False,0.11373109499999974,0.8862689050000002,Audio,29,0.11373109499999974,0.8862689050000002,Audio,29,3,0,8,1
99,100,454322.74943000014,1437.6575980000198,True,31,small,pequeno,0.3,False,0.11373109499999974,0.8862689050000002,Visual,31,0.11373109499999974,0.8862689050000002,Visual,31,3,0,8,1
100,101,457548.03331100015,1196.3687159998226,True,30,far,longe,0.250390625,False,0.11373109499999974,0.8862689050000002,Audio,30,0.11373109499999974,0.8862689050000002,Audio,30,3,0,8,1
101,102,460250.18487200007,862.1660680000787,True,10,virus,virus,0.20078125,False,0.16373109499999974,0.8362689050000003,Audio,10,0.16373109499999974,0.8362689050000003,Audio,10,4,0,8,1
102,103,462800.645385,2264.014627000084,True,32,good,bom,0.3,True,0.16373109499999974,0.8362689050000003,Visual,32,0.16373109499999974,0.8362689050000003,Visual,32,4,0,8,1
103,104,466683.40342200006,2322.8740069998894,True,27,can,poder,0.34375,False,0.08010420449999966,0.9198957955000003,Visual,27,0.08010420449999966,0.9198957955000003,Visual,27,4,0,9,1
104,105,470630.38276300015,6985.813453999988,False,32,good,bom,0.3,False,0.08010420449999966,0.9198957955000003,Visual,32,0.08010420449999966,0.9198957955000003,Visual,32,4,0,9,2
105,106,479322.331312,1931.4218970001093,True,33,beautiful,bonito,0.3,True,0.08010420449999966,0.9198957955000003,Visual,33,0.08010420449999966,0.9198957955000003,Visual,33,4,0,9,2
106,107,483562.7249460001,2402.3689639998483,True,34,ugly,feio,0.3,True,0.08010420449999966,0.9198957955000003,Visual,34,0.08010420449999966,0.9198957955000003,Visual,34,4,0,9,2
107,108,487643.024474,1333.77761200018,True,33,beautiful,bonito,0.3,False,0.08010420449999966,0.9198957955000003,Visual,33,0.08010420449999966,0.9198957955000003,Visual,33,4,0,9,2
108,109,493189.453898,1248.1088070000987,True,34,ugly,feio,0.3,False,0.08010420449999966,0.9198957955000003,Visual,34,0.08010420449999966,0.9198957955000003,Visual,34,4,0,9,2
109,110,496071.35526900017,1159.875262000016,True,35,difficult,dificil,0.3,True,0.08010420449999966,0.9198957955000003,Visual,35,0.08010420449999966,0.9198957955000003,Visual,35,4,0,9,2
110,111,500087.1580410001,1123.557982999948,True,31,small,pequeno,0.250390625,False,0.08010420449999966,0.9198957955000003,Visual,31,0.08010420449999966,0.9198957955000003,Visual,31,4,0,9,2
111,112,503123.814476,1253.7563709999667,True,35,difficult,dificil,0.3,False,0.08010420449999966,0.9198957955000003,Visual,35,0.08010420449999966,0.9198957955000003,Visual,35,4,0,9,2
112,113,506654.7811300002,956.3085799997788,True,12,investment,investimento,0.20078125,False,0.13010420449999965,0.8698957955000004,Audio,12,0.13010420449999965,0.8698957955000004,Audio,12,5,0,9,2
113,114,510336.2510700001,1511.3432199998642,True,36,bad,mau,0.3,True,0.13010420449999965,0.8698957955000004,Visual,36,0.13010420449999965,0.8698957955000004,Visual,36,5,0,9,2
114,115,513671.8182920001,1516.9239540000565,True,11,dinner,jantar,0.20078125,False,0.18010420449999964,0.8198957955000004,Audio,11,0.18010420449999964,0.8198957955000004,Audio,11,6,0,9,2
115,116,517002.177156,1913.492015999975,True,36,bad,mau,0.3,False,0.18010420449999964,0.8198957955000004,Visual,36,0.18010420449999964,0.8198957955000004,Visual,36,6,0,9,2
116,117,520397.2377370001,1249.1981159999268,True,32,good,bom,0.250390625,False,0.18010420449999964,0.8198957955000004,Visual,32,0.18010420449999964,0.8198957955000004,Visual,32,6,0,9,2
117,118,523249.94882200006,1314.668208000017,True,14,thank you,obrigado,0.20078125,False,0.23010420449999963,0.7698957955000003,Audio,14,0.23010420449999963,0.7698957955000003,Audio,14,7,0,9,2
118,119,526837.146419,1862.8881950000068,True,25,yesterday,ontem,0.28125,False,0.1531146249499996,0.8468853750500004,Visual,25,0.1531146249499996,0.8468853750500004,Visual,25,7,0,10,2
119,120,531322.867562,1754.7457810001215,True,13,yes,sim,0.20078125,False,0.06842608744499956,0.9315739125550004,Visual,13,0.06842608744499956,0.9315739125550004,Visual,13,7,0,11,2
120,121,534477.939032,2202.864914999925,True,33,beautiful,bonito,0.274609375,False,0.06842608744499956,0.9315739125550004,Visual,33,0.06842608744499956,0.9315739125550004,Visual,33,7,0,11,2
121,122,538943.6136890001,2591.600022999919,True,37,near,perto,0.3,True,0.06842608744499956,0.9315739125550004,Audio,37,0.06842608744499956,0.9315739125550004,Audio,37,7,0,11,2
122,123,548047.4511800001,1138.170867000008,True,34,ugly,feio,0.250390625,False,0.06842608744499956,0.9315739125550004,Visual,34,0.06842608744499956,0.9315739125550004,Visual,34,7,0,11,2
123,124,550757.383415,1732.7690310000908,True,37,near,perto,0.3,False,0.06842608744499956,0.9315739125550004,Audio,37,0.06842608744499956,0.9315739125550004,Audio,37,7,0,11,2
124,125,554076.6996889999,inf,True,35,difficult,dificil,0.349609375,False,0.06842608744499956,0.9315739125550004,Visual,35,0.06842608744499956,0.9315739125550004,Visual,35,7,0,11,2
125,126,557989.911329,3747.469585000072,True,38,beer,cerveja,0.3,True,0.06842608744499956,0.9315739125550004,Visual,38,0.06842608744499956,0.9315739125550004,Visual,38,7,0,11,2
126,127,564600.7199120001,1822.746547000017,True,36,bad,mau,0.250390625,False,0.06842608744499956,0.9315739125550004,Visual,36,0.06842608744499956,0.9315739125550004,Visual,36,7,0,11,2
127,128,568027.0358780001,1350.258855000022,True,38,beer,cerveja,0.3,False,0.06842608744499956,0.9315739125550004,Visual,38,0.06842608744499956,0.9315739125550004,Visual,38,7,0,11,2
128,129,571358.9776850002,1563.585459999973,True,27,can,poder,0.340234375,False,-0.02473130381050037,1.0247313038105004,Visual,27,-0.02473130381050037,1.0247313038105004,Visual,27,7,0,12,2
129,130,574586.969967,1872.277733000112,True,15,goodbye,adeus,0.20078125,False,-0.12720443419155036,1.1272044341915504,Visual,15,-0.12720443419155036,1.1272044341915504,Visual,15,7,0,13,2
130,131,578531.091223,1433.4360009999946,True,16,smile,sorrir,0.20078125,False,-0.07720443419155036,1.0772044341915503,Audio,16,-0.07720443419155036,1.0772044341915503,Audio,16,8,0,13,2
131,132,581750.554237,2370.666097000125,True,20,nice to meet you,prazer,0.291015625,False,-0.07720443419155036,1.0772044341915503,Visual,20,-0.07720443419155036,1.0772044341915503,Visual,20,8,0,13,2
132,133,587134.3576550003,1074.1120409998111,True,18,airport,aeroporto,0.20078125,False,-0.1849248776107053,1.1849248776107053,Visual,18,-0.1849248776107053,1.1849248776107053,Visual,18,8,0,14,2
133,134,590075.4145900001,3854.202022000216,False,39,vinho,wine,0.3,True,-0.1849248776107053,1.1849248776107053,Visual,39,-0.1849248776107053,1.1849248776107053,Visual,39,8,0,14,2
134,135,595618.8387600001,3632.370246999897,True,35,difficult,dificil,0.3992187499999999,False,-0.30341736537177577,1.3034173653717758,Visual,35,-0.30341736537177577,1.3034173653717758,Visual,35,8,0,15,2
135,136,601652.824963,2073.1420870001893,False,39,vinho,wine,0.3,False,-0.30341736537177577,1.3034173653717758,Visual,39,-0.30341736537177577,1.3034173653717758,Visual,39,8,0,15,3
136,137,605474.381855,2164.9791670001578,True,37,near,perto,0.262109375,False,-0.30341736537177577,1.3034173653717758,Audio,37,-0.30341736537177577,1.3034173653717758,Audio,37,8,0,15,3
137,138,609719.4264,3047.176463000127,True,40,chicken,frango,0.3,True,-0.30341736537177577,1.3034173653717758,Visual,40,-0.30341736537177577,1.3034173653717758,Visual,40,8,0,15,3
138,139,615594.5587139999,3627.5449240001617,True,38,beer,cerveja,0.349609375,False,-0.30341736537177577,1.3034173653717758,Visual,38,-0.30341736537177577,1.3034173653717758,Visual,38,8,0,15,3

