,trial,start_time,rt,correct,fact_id,question,answer,alpha,new,audio_visual_chance,visual_chance,audio_or_visual_fact,fact_id,audio_visual_chance,visual_chance,audio_or_visual_fact,fact_id,correct_audio_visual,wrong_audio_visual,correct_visual,wrong_visual
0,1,28708.913746000235,1431.7782039997835,True,1,car,carro,0.3,True,0.5,0.5,Visual,1,0.5,0.5,Visual,1,0,0,0,0
1,2,33548.664418000044,1308.1578830001529,True,1,car,carro,0.3,False,0.5,0.5,Visual,1,0.5,0.5,Visual,1,0,0,0,0
2,3,36974.10625900011,1404.4211350001206,True,2,visit,visita,0.3,True,0.5,0.5,Visual,2,0.5,0.5,Visual,2,0,0,0,0
3,4,41933.66007199984,1202.801137000279,True,2,visit,visita,0.3,False,0.5,0.5,Visual,2,0.5,0.5,Visual,2,0,0,0,0
4,5,45980.221347000224,2694.234053999935,True,3,bread,pao,0.3,True,0.5,0.5,Audio,3,0.5,0.5,Audio,3,0,0,0,0
5,6,51956.727418999886,2054.753076000001,True,4,blood,sangue,0.3,True,0.5,0.5,Visual,4,0.5,0.5,Visual,4,0,0,0,0
6,7,56524.42730400026,1747.9687719996873,True,3,bread,pao,0.3,False,0.5,0.5,Audio,3,0.5,0.5,Audio,3,0,0,0,0
7,8,60863.31220000011,1425.075244999789,True,4,blood,sangue,0.3,False,0.5,0.5,Visual,4,0.5,0.5,Visual,4,0,0,0,0
8,9,65128.59028799994,1208.95904899999,True,5,insect,inseto,0.3,True,0.5,0.5,Visual,5,0.5,0.5,Visual,5,0,0,0,0
9,10,69631.87720899987,980.7155410003325,True,6,exam,exame,0.3,True,0.5,0.5,Visual,6,0.5,0.5,Visual,6,0,0,0,0
10,11,72821.17659799996,1500.680148999891,True,5,insect,inseto,0.3,False,0.5,0.5,Visual,5,0.5,0.5,Visual,5,0,0,0,0
11,12,76929.72307699983,3612.778939000244,True,6,exam,exame,0.3,False,0.5,0.5,Visual,6,0.5,0.5,Visual,6,0,0,0,0
12,13,82546.77524399995,947.8710329999594,True,1,car,carro,0.250390625,False,0.5,0.5,Visual,1,0.5,0.5,Visual,1,0,0,0,0
13,14,85383.13690799987,999.1309800002492,True,2,visit,visita,0.250390625,False,0.5,0.5,Visual,2,0.5,0.5,Visual,2,0,0,0,0
14,15,88750.54874599983,1912.0010480000929,True,7,elevator,elevador,0.3,True,0.5,0.5,Audio,7,0.5,0.5,Audio,7,0,0,0,0
15,16,93363.20756099986,833.9388790000085,True,8,industry,industria,0.3,True,0.5,0.5,Visual,8,0.5,0.5,Visual,8,0,0,0,0
16,17,97091.68743200006,1640.3663390001457,True,7,elevator,elevador,0.3,False,0.5,0.5,Audio,7,0.5,0.5,Audio,7,0,0,0,0
17,18,101325.59118200016,1662.3885670001036,True,8,industry,industria,0.3,False,0.5,0.5,Visual,8,0.5,0.5,Visual,8,0,0,0,0
18,19,106140.7134850001,1158.2512720001396,True,3,bread,pao,0.250390625,False,0.5,0.5,Audio,3,0.5,0.5,Audio,3,0,0,0,0
19,20,109582.63713399992,1180.7206530002004,True,4,blood,sangue,0.250390625,False,0.5,0.5,Visual,4,0.5,0.5,Visual,4,0,0,0,0
20,21,112618.8442130001,1270.482496000113,True,9,employee,empregado,0.3,True,0.5,0.5,Visual,9,0.5,0.5,Visual,9,0,0,0,0
21,22,116813.01725699996,1072.7699819999543,True,10,virus,virus,0.3,True,0.5,0.5,Audio,10,0.5,0.5,Audio,10,0,0,0,0
22,23,119806.16765800003,11809.58310899997,False,9,employee,empregado,0.3,False,0.5,0.5,Visual,9,0.5,0.5,Visual,9,0,0,0,1
23,24,135166.00477800012,1167.524938000046,True,10,virus,virus,0.3,False,0.5,0.5,Audio,10,0.5,0.5,Audio,10,0,0,0,1
24,25,139473.31267400022,951.6081329998268,True,5,insect,inseto,0.250390625,False,0.5,0.5,Visual,5,0.5,0.5,Visual,5,0,0,0,1
25,26,142956.192356,1180.3023060001433,True,6,exam,exame,0.250390625,False,0.5,0.5,Visual,6,0.5,0.5,Visual,6,0,0,0,1
26,27,145891.40105000025,1462.430551999656,True,7,elevator,elevador,0.250390625,False,0.5,0.5,Audio,7,0.5,0.5,Audio,7,0,0,0,1
27,28,150002.87121300015,1016.45725699974,True,8,industry,industria,0.250390625,False,0.5,0.5,Visual,8,0.5,0.5,Visual,8,0,0,0,1
28,29,153574.31664700017,1558.978030999715,True,11,dinner,jantar,0.3,True,0.5,0.5,Audio,11,0.5,0.5,Audio,11,0,0,0,1
29,30,157182.54596399993,1012.2121160002134,True,12,investment,investimento,0.3,True,0.5,0.5,Audio,12,0.5,0.5,Audio,12,0,0,0,1
30,31,161706.38606900003,2009.6944010001607,False,11,dinner,jantar,0.3,False,0.5,0.5,Audio,11,0.5,0.5,Audio,11,0,1,0,1
31,32,166190.73503400022,1938.3179169999491,True,12,investment,investimento,0.3,False,0.5,0.5,Audio,12,0.5,0.5,Audio,12,0,1,0,1
32,33,170864.2790660001,1576.7852389999607,True,9,employee,empregado,0.250390625,False,0.5,0.5,Visual,9,0.5,0.5,Visual,9,0,1,0,1
33,34,174930.18474500012,1815.7927160000545,True,13,yes,sim,0.3,True,0.5,0.5,Audio,13,0.5,0.5,Audio,13,0,1,0,1
34,35,178816.2739700001,1155.7272579998537,True,14,thank you,obrigado,0.3,True,0.5,0.5,Audio,14,0.5,0.5,Audio,14,0,1,0,1
35,36,182461.5295839999,1291.626117000298,True,13,yes,sim,0.3,False,0.5,0.5,Audio,13,0.5,0.5,Audio,13,0,1,0,1
36,37,185267.7872700001,1399.2132280000078,True,14,thank you,obrigado,0.3,False,0.5,0.5,Audio,14,0.5,0.5,Audio,14,0,1,0,1
37,38,191597.94699600025,1318.5736509999551,True,10,virus,virus,0.250390625,False,0.5,0.5,Audio,10,0.5,0.5,Audio,10,0,1,0,1
38,39,194669.62032499988,1190.1314800002149,True,15,goodbye,adeus,0.3,True,0.5,0.5,Visual,15,0.5,0.5,Visual,15,0,1,0,1
39,40,198886.16591200023,966.1983019995968,True,16,smile,sorrir,0.3,True,0.5,0.5,Visual,16,0.5,0.5,Visual,16,0,1,0,1
40,41,201546.9466730001,10767.007772999932,False,15,goodbye,adeus,0.3,False,0.5,0.5,Visual,15,0.5,0.5,Visual,15,0,1,0,2
41,42,213815.933805,1122.3828430002031,False,16,smile,sorrir,0.3,False,0.5,0.5,Visual,16,0.5,0.5,Visual,16,0,1,0,3
42,43,217555.0801720001,4131.839890999778,False,11,dinner,jantar,0.349609375,False,0.5,0.5,Audio,11,0.5,0.5,Audio,11,0,2,0,3
43,44,224016.01308799992,997.1480429999064,True,12,investment,investimento,0.250390625,False,0.5,0.5,Audio,12,0.5,0.5,Audio,12,0,2,0,3
44,45,227632.31568599987,1008.9244360001176,True,17,today,hoje,0.3,True,0.5,0.5,Audio,17,0.5,0.5,Audio,17,0,2,0,3
45,46,231493.887526,1276.3918470000208,True,13,yes,sim,0.250390625,False,0.5,0.5,Audio,13,0.5,0.5,Audio,13,0,2,0,3
46,47,234340.30571499988,6543.540266000055,False,17,today,hoje,0.3,False,0.5,0.5,Audio,17,0.5,0.5,Audio,17,0,3,0,3
47,48,243014.43216400003,3512.8637719999533,True,14,thank you,obrigado,0.349609375,False,0.5,0.5,Audio,14,0.5,0.5,Audio,14,0,3,0,3
48,49,249538.346589,5684.096765000053,False,15,goodbye,adeus,0.349609375,False,0.5,0.5,Visual,15,0.5,0.5,Visual,15,0,3,0,4
49,50,257271.77373699984,1134.0605830000711,False,11,dinner,jantar,0.3992187499999999,False,0.5,0.5,Audio,11,0.5,0.5,Audio,11,0,4,0,4
50,51,260670.827035,1499.8081670000977,True,18,airport,aeroporto,0.3,True,0.5,0.5,Visual,18,0.5,0.5,Visual,18,0,4,0,4
51,52,265350.214523,1094.3914929998573,False,16,smile,sorrir,0.349609375,False,0.5,0.5,Visual,16,0.5,0.5,Visual,16,0,4,0,5
52,53,268255.30111399986,3021.241836000176,True,18,airport,aeroporto,0.3,False,0.5,0.5,Visual,18,0.5,0.5,Visual,18,0,4,0,5
53,54,273869.5713699999,1307.1361470001866,True,19,hi,oi,0.3,True,0.5,0.5,Visual,19,0.5,0.5,Visual,19,0,4,0,5
54,55,276561.3559389999,1317.9536900001694,False,20,nice to meet you,prazer,0.3,True,0.5,0.5,Audio,20,0.5,0.5,Audio,20,0,4,0,5
55,56,281191.86916299985,inf,True,19,hi,oi,0.3,False,0.5,0.5,Visual,19,0.5,0.5,Visual,19,0,4,0,5
56,57,287770.89291999984,1478.836954000115,True,20,nice to meet you,prazer,0.3,False,0.5,0.5,Audio,20,0.5,0.5,Audio,20,0,4,0,5
57,58,292570.8270099999,11426.342060000054,False,17,today,hoje,0.349609375,False,0.5,0.5,Audio,17,0.5,0.5,Audio,17,0,5,0,5
58,59,306487.1323420002,2201.1455359997926,True,14,thank you,obrigado,0.30625,False,0.5,0.5,Audio,14,0.5,0.5,Audio,14,1,5,0,5
59,60,310853.25221899984,inf,False,11,dinner,jantar,0.4488281249999999,False,0.5,0.5,Audio,11,0.5,0.5,Audio,11,1,6,0,5
60,61,322103.5296350001,2277.855806999898,False,15,goodbye,adeus,0.3992187499999999,False,0.5,0.5,Visual,15,0.5,0.5,Visual,15,1,6,0,6
61,62,326246.85627300007,1013.9552679997868,False,16,smile,sorrir,0.3992187499999999,False,0.5,0.5,Visual,16,0.5,0.5,Visual,16,1,6,0,7
62,63,329294.33756100025,1690.6369369999156,True,18,airport,aeroporto,0.250390625,False,0.5,0.5,Visual,18,0.5,0.5,Visual,18,1,6,0,7
63,64,333570.5826080002,2799.00495199993,False,11,dinner,jantar,0.4773437499999999,False,0.5,0.5,Audio,11,0.5,0.5,Audio,11,1,7,0,7
64,65,338183.1480880001,1100.9423219998134,True,19,hi,oi,0.250390625,False,0.5,0.5,Visual,19,0.5,0.5,Visual,19,1,7,0,7
65,66,340608.478401,11957.060687000165,False,17,today,hoje,0.3992187499999999,False,0.5,0.5,Audio,17,0.5,0.5,Audio,17,1,8,0,7
66,67,354594.9949430001,inf,False,20,nice to meet you,prazer,0.349609375,False,0.5,0.5,Audio,20,0.5,0.5,Audio,20,1,9,0,7
67,68,378447.60324000026,3887.39063499996,False,11,dinner,jantar,0.4832031249999999,False,0.5,0.5,Audio,11,0.5,0.5,Audio,11,1,10,0,7
68,69,384953.4386240002,5031.909528999648,False,15,goodbye,adeus,0.4371093749999999,False,0.5,0.5,Visual,15,0.5,0.5,Visual,15,1,10,0,8
69,70,393439.9098560002,959.7936539999208,False,16,smile,sorrir,0.4464843749999999,False,0.5,0.5,Visual,16,0.5,0.5,Visual,16,1,10,0,9
70,71,396344.22987200017,13811.146357999824,False,17,today,hoje,0.4488281249999999,False,0.5,0.5,Audio,17,0.5,0.5,Audio,17,1,11,0,9
71,72,411946.7990900002,4324.510648999887,False,15,goodbye,adeus,0.4374999999999999,False,0.5,0.5,Visual,15,0.5,0.5,Visual,15,1,11,0,10
72,73,420350.6847270001,4380.041077999922,False,11,dinner,jantar,0.5328125,False,0.5,0.5,Audio,11,0.5,0.5,Audio,11,1,12,0,10
73,74,426705.990684,inf,False,16,smile,sorrir,0.4585937499999999,False,0.5,0.5,Visual,16,0.5,0.5,Visual,16,1,12,0,11
74,75,436282.8545450002,11964.26097799989,False,17,today,hoje,0.4617187499999999,False,0.5,0.5,Audio,17,0.5,0.5,Audio,17,1,13,0,11
75,76,450346.603942,inf,False,11,dinner,jantar,0.568359375,False,0.5,0.5,Audio,11,0.5,0.5,Audio,11,1,14,0,11
76,77,465466.64327100007,13894.284245000104,False,20,nice to meet you,prazer,0.396875,False,0.5,0.5,Audio,20,0.5,0.5,Audio,20,1,15,0,11
77,78,482220.92356700025,8587.709063999646,False,11,dinner,jantar,0.571875,False,0.5,0.5,Audio,11,0.5,0.5,Audio,11,1,16,0,11
78,79,493081.0973920002,inf,False,16,smile,sorrir,0.4613281249999998,False,0.5,0.5,Visual,16,0.5,0.5,Visual,16,1,16,0,12
79,80,515755.9067950001,7505.340880999982,False,17,today,hoje,0.4738281249999999,False,0.5,0.5,Audio,17,0.5,0.5,Audio,17,1,17,0,12
80,81,525457.0336800002,3477.6869139996124,True,11,dinner,jantar,0.5964843750000001,False,0.5,0.5,Audio,11,0.5,0.5,Audio,11,1,17,0,12
81,82,530788.9687360002,3766.074125999701,False,15,goodbye,adeus,0.4605468749999999,False,0.5,0.5,Visual,15,0.5,0.5,Visual,15,1,17,0,13
82,83,537210.4598589999,5596.671881000046,False,20,nice to meet you,prazer,0.3996093749999999,False,0.5,0.5,Audio,20,0.5,0.5,Audio,20,1,18,0,13
83,84,545601.1273039998,inf,False,11,dinner,jantar,0.6054687500000001,False,0.5,0.5,Audio,11,0.5,0.5,Audio,11,1,19,0,13
84,85,557446.4274900001,11913.475134999724,False,16,smile,sorrir,0.5109374999999999,False,0.5,0.5,Visual,16,0.5,0.5,Visual,16,1,19,0,14
85,86,571338.0540009998,2801.312249000184,True,11,dinner,jantar,0.6082031250000001,False,0.5,0.5,Audio,11,0.5,0.5,Audio,11,1,19,0,14
86,87,576021.8441020001,1661.8641470000148,False,17,today,hoje,0.4984375,False,0.5,0.5,Audio,17,0.5,0.5,Audio,17,1,20,0,14
87,88,582436.8991410001,14160.08559500007,False,15,goodbye,adeus,0.4726562499999999,False,0.5,0.5,Visual,15,0.5,0.5,Visual,15,1,20,0,15
88,89,598868.0092620002,2599.8554869997315,True,16,smile,sorrir,0.510546875,False,0.5,0.5,Visual,16,0.5,0.5,Visual,16,1,20,0,15
89,90,603203.8368600002,6247.18716500001,True,11,dinner,jantar,0.6203125000000002,False,0.5,0.5,Audio,11,0.5,0.5,Audio,11,1,20,0,15
90,91,611332.7815080001,2735.056229999871,True,2,visit,visita,0.2249999999999999,False,0.44999999999999996,0.55,Visual,2,0.44999999999999996,0.55,Visual,2,1,20,1,15
91,92,616025.8022110001,6760.810764999944,True,17,today,hoje,0.523046875,False,0.44999999999999996,0.55,Audio,17,0.44999999999999996,0.55,Audio,17,1,20,1,15
92,93,624610.3115710003,inf,False,11,dinner,jantar,0.6699218750000002,False,0.44999999999999996,0.55,Audio,11,0.44999999999999996,0.55,Audio,11,1,21,1,15

