,trial,start_time,rt,correct,fact_id,question,answer,alpha,new,audio_visual_chance,visual_chance,audio_or_visual_fact,fact_id,audio_visual_chance,visual_chance,audio_or_visual_fact,fact_id,correct_audio_visual,wrong_audio_visual,correct_visual,wrong_visual
0,1,20370.49720901996,1230.35525000887,True,1,car,carro,0.3,True,0.5,0.5,Audio,1,0.5,0.5,Audio,1,0,0,0,0
1,2,24970.34162498312,1966.0144590307027,True,1,car,carro,0.3,False,0.5,0.5,Audio,1,0.5,0.5,Audio,1,0,0,0,0
2,3,28553.21450001793,1857.142333989032,True,2,visit,visita,0.3,True,0.5,0.5,Audio,2,0.5,0.5,Audio,2,0,0,0,0
3,4,32558.837666991167,576.1324579943903,True,2,visit,visita,0.3,False,0.5,0.5,Audio,2,0.5,0.5,Audio,2,0,0,0,0
4,5,35944.78079199325,2052.5146669824608,True,3,bread,pao,0.3,True,0.5,0.5,Audio,3,0.5,0.5,Audio,3,0,0,0,0
5,6,41165.5352920061,1770.460958010517,True,4,blood,sangue,0.3,True,0.5,0.5,Visual,4,0.5,0.5,Visual,4,0,0,0,0
6,7,45567.87670898484,1399.942958028987,True,3,bread,pao,0.3,False,0.5,0.5,Audio,3,0.5,0.5,Audio,3,0,0,0,0
7,8,50242.4970419961,1290.8121250220574,True,4,blood,sangue,0.3,False,0.5,0.5,Visual,4,0.5,0.5,Visual,4,0,0,0,0
8,9,54338.11549999518,1621.393834007904,True,5,insect,inseto,0.3,True,0.5,0.5,Audio,5,0.5,0.5,Audio,5,0,0,0,0
9,10,57885.3953339858,718.7140000169165,True,6,exam,exame,0.3,True,0.5,0.5,Visual,6,0.5,0.5,Visual,6,0,0,0,0
10,11,61532.20750001492,979.6796669834292,True,5,insect,inseto,0.3,False,0.5,0.5,Audio,5,0.5,0.5,Audio,5,0,0,0,0
11,12,66917.0202499954,816.133834014181,True,6,exam,exame,0.3,False,0.5,0.5,Visual,6,0.5,0.5,Visual,6,0,0,0,0
12,13,70866.82233400643,2795.802749984432,False,1,car,carro,0.349609375,False,0.5,0.5,Audio,1,0.5,0.5,Audio,1,0,1,0,0
13,14,74725.55849998025,858.9803749928251,False,2,visit,visita,0.349609375,False,0.5,0.5,Audio,2,0.5,0.5,Audio,2,0,2,0,0
14,15,82079.89774999442,768.7189999851398,True,7,elevator,elevador,0.3,True,0.5,0.5,Audio,7,0.5,0.5,Audio,7,0,2,0,0
15,16,85820.94412500737,1294.6150840143673,True,8,industry,industria,0.3,True,0.5,0.5,Audio,8,0.5,0.5,Audio,8,0,2,0,0
16,17,91399.2575419834,755.8425420429558,True,7,elevator,elevador,0.3,False,0.5,0.5,Audio,7,0.5,0.5,Audio,7,0,2,0,0
17,18,95888.8137920294,2218.291832949035,True,8,industry,industria,0.3,False,0.5,0.5,Audio,8,0.5,0.5,Audio,8,0,2,0,0
18,19,102869.06858399745,3619.288875022903,True,3,bread,pao,0.349609375,False,0.5,0.5,Audio,3,0.5,0.5,Audio,3,0,2,0,0
19,20,109043.79541700472,1243.4032500023022,True,4,blood,sangue,0.250390625,False,0.5,0.5,Visual,4,0.5,0.5,Visual,4,0,2,0,0
20,21,114837.17800001614,1997.624374984298,True,5,insect,inseto,0.250390625,False,0.5,0.5,Audio,5,0.5,0.5,Audio,5,0,2,0,0
21,22,119469.06295901864,1530.9074159595184,True,1,car,carro,0.33984375,False,0.5,0.5,Audio,1,0.5,0.5,Audio,1,0,2,0,0
22,23,123852.5576670072,978.1267080106772,False,2,visit,visita,0.3992187499999999,False,0.5,0.5,Audio,2,0.5,0.5,Audio,2,0,3,0,0
23,24,129934.7722089733,810.0216660532169,True,6,exam,exame,0.250390625,False,0.5,0.5,Visual,6,0.5,0.5,Visual,6,0,3,0,0
24,25,132788.77770900726,998.034790973179,True,9,employee,empregado,0.3,True,0.5,0.5,Audio,9,0.5,0.5,Audio,9,0,3,0,0
25,26,137232.85179201048,748.146291996818,True,10,virus,virus,0.3,True,0.5,0.5,Audio,10,0.5,0.5,Audio,10,0,3,0,0
26,27,139807.92604200542,1112.1551669784822,True,9,employee,empregado,0.3,False,0.5,0.5,Audio,9,0.5,0.5,Audio,9,0,3,0,0
27,28,144318.48841701867,960.9439999912864,True,10,virus,virus,0.3,False,0.5,0.5,Audio,10,0.5,0.5,Audio,10,0,3,0,0
28,29,147645.09595901472,1682.0852909586392,True,7,elevator,elevador,0.250390625,False,0.5,0.5,Audio,7,0.5,0.5,Audio,7,0,3,0,0
29,30,153601.10233398154,1472.026208008174,True,3,bread,pao,0.3,False,0.5,0.5,Audio,3,0.5,0.5,Audio,3,1,3,0,0
30,31,158394.04395897873,2326.154333015438,False,8,industry,industria,0.349609375,False,0.5,0.5,Audio,8,0.5,0.5,Audio,8,1,4,0,0
31,32,164078.74187501147,1125.5392499733716,True,2,visit,visita,0.398828125,False,0.5,0.5,Audio,2,0.5,0.5,Audio,2,1,4,0,0
32,33,167800.50495901378,1946.119332977105,True,11,dinner,jantar,0.3,True,0.5,0.5,Visual,11,0.5,0.5,Visual,11,1,4,0,0
33,34,172046.07466701418,984.7037500003352,True,12,investment,investimento,0.3,True,0.5,0.5,Visual,12,0.5,0.5,Visual,12,1,4,0,0
34,35,177047.30579198804,inf,False,11,dinner,jantar,0.3,False,0.5,0.5,Visual,11,0.5,0.5,Visual,11,1,4,0,1
35,36,181776.5371670248,737.860916997306,True,12,investment,investimento,0.3,False,0.5,0.5,Visual,12,0.5,0.5,Visual,12,1,4,0,1
36,37,185194.4728749804,3471.2368340115063,False,9,employee,empregado,0.349609375,False,0.5,0.5,Audio,9,0.5,0.5,Audio,9,1,5,0,1
37,38,192905.47733398853,2141.7679160367697,True,10,virus,virus,0.268359375,False,0.5,0.5,Audio,10,0.5,0.5,Audio,10,1,5,0,1
38,39,196684.34279202484,1253.553666989319,True,8,industry,industria,0.3,False,0.5,0.5,Audio,8,0.5,0.5,Audio,8,1,5,0,1
39,40,200769.9770000181,1355.538500007242,True,13,yes,sim,0.3,True,0.5,0.5,Visual,13,0.5,0.5,Visual,13,1,5,0,1
40,41,203545.34374998184,1790.2696669916622,True,14,thank you,obrigado,0.3,True,0.5,0.5,Audio,14,0.5,0.5,Audio,14,1,5,0,1
41,42,209783.09783397708,1567.7831250359304,True,13,yes,sim,0.3,False,0.5,0.5,Visual,13,0.5,0.5,Visual,13,1,5,0,1
42,43,213162.5269170036,1745.816125010606,True,14,thank you,obrigado,0.3,False,0.5,0.5,Audio,14,0.5,0.5,Audio,14,1,5,0,1
43,44,219508.63408402077,1158.568374987226,True,1,car,carro,0.290234375,False,0.5,0.5,Audio,1,0.5,0.5,Audio,1,1,5,0,1
44,45,224214.0800000052,1599.0890419925563,True,2,visit,visita,0.3984375,False,0.5,0.5,Audio,2,0.5,0.5,Audio,2,1,5,0,1
45,46,228786.85754199975,1158.2625830196775,False,11,dinner,jantar,0.349609375,False,0.5,0.5,Visual,11,0.5,0.5,Visual,11,1,5,0,2
46,47,231005.84662501933,2328.302084002644,True,9,employee,empregado,0.34375,False,0.5,0.5,Audio,9,0.5,0.5,Audio,9,1,5,0,2
47,48,237924.87183399496,909.9221660289912,True,12,investment,investimento,0.250390625,False,0.5,0.5,Visual,12,0.5,0.5,Visual,12,1,5,0,2
48,49,241779.1589589906,2965.874249988701,True,15,goodbye,adeus,0.3,True,0.5,0.5,Audio,15,0.5,0.5,Audio,15,1,5,0,2
49,50,247079.5709170052,2216.685833001975,True,16,smile,sorrir,0.3,True,0.5,0.5,Audio,16,0.5,0.5,Audio,16,1,5,0,2
50,51,251242.7882089978,1045.2273749979213,True,15,goodbye,adeus,0.3,False,0.5,0.5,Audio,15,0.5,0.5,Audio,15,1,5,0,2
51,52,256389.6816250053,2751.923709001858,False,16,smile,sorrir,0.3,False,0.5,0.5,Audio,16,0.5,0.5,Audio,16,1,6,0,2
52,53,260206.8057089928,2819.2972500110045,False,13,yes,sim,0.349609375,False,0.5,0.5,Visual,13,0.5,0.5,Visual,13,1,6,0,3
53,54,264090.0712090079,3450.8765829959884,False,14,thank you,obrigado,0.349609375,False,0.5,0.5,Audio,14,0.5,0.5,Audio,14,1,7,0,3
54,55,268606.31795902736,1212.0998749742284,True,17,today,hoje,0.3,True,0.5,0.5,Visual,17,0.5,0.5,Visual,17,1,7,0,3
55,56,271675.6242919946,3056.221542006824,False,11,dinner,jantar,0.3992187499999999,False,0.5,0.5,Visual,11,0.5,0.5,Visual,11,1,7,0,4
56,57,275797.0675419783,7432.198167021852,True,17,today,hoje,0.3,False,0.5,0.5,Visual,17,0.5,0.5,Visual,17,1,7,0,4
57,58,287056.730124983,839.9744170019403,True,18,airport,aeroporto,0.3,True,0.5,0.5,Visual,18,0.5,0.5,Visual,18,1,7,0,4
58,59,290040.5079590273,1572.3870410001837,True,19,hi,oi,0.3,True,0.5,0.5,Visual,19,0.5,0.5,Visual,19,1,7,0,4
59,60,293220.78179201344,890.4390420066193,True,18,airport,aeroporto,0.3,False,0.5,0.5,Visual,18,0.5,0.5,Visual,18,1,7,0,4
60,61,296060.5719590094,5289.917375019286,True,19,hi,oi,0.3,False,0.5,0.5,Visual,19,0.5,0.5,Visual,19,1,7,0,4
61,62,303203.9279169985,2460.302666993812,True,15,goodbye,adeus,0.305859375,False,0.5,0.5,Audio,15,0.5,0.5,Audio,15,1,7,0,4
62,63,309236.40604200773,2577.0694579696283,False,11,dinner,jantar,0.4488281249999999,False,0.5,0.5,Visual,11,0.5,0.5,Visual,11,1,7,0,5
63,64,312878.39562498266,2173.829834035132,True,13,yes,sim,0.3249999999999999,False,0.5,0.5,Visual,13,0.5,0.5,Visual,13,1,7,0,5
64,65,316486.61670897854,1615.40262500057,False,16,smile,sorrir,0.349609375,False,0.5,0.5,Audio,16,0.5,0.5,Audio,16,1,8,0,5
65,66,319164.9645420257,2886.857957986649,True,14,thank you,obrigado,0.3874999999999999,False,0.5,0.5,Audio,14,0.5,0.5,Audio,14,1,8,0,5
66,67,324659.6831249772,inf,True,2,visit,visita,0.4425781249999999,False,0.5,0.5,Audio,2,0.5,0.5,Audio,2,2,8,0,5
67,68,329090.5295420089,inf,False,17,today,hoje,0.349609375,False,0.5,0.5,Visual,17,0.5,0.5,Visual,17,2,8,0,6
68,69,336859.5862090005,929.0855409926736,True,11,dinner,jantar,0.4484374999999999,False,0.5,0.5,Visual,11,0.5,0.5,Visual,11,2,8,0,6
69,70,341522.5542919943,902.525958023034,True,9,employee,empregado,0.337109375,False,0.5,0.5,Audio,9,0.5,0.5,Audio,9,2,8,0,6
70,71,344976.9532919745,880.8123750495724,True,18,airport,aeroporto,0.250390625,False,0.5,0.5,Visual,18,0.5,0.5,Visual,18,2,8,0,6
71,72,348789.97308399994,3590.771374991164,True,19,hi,oi,0.349609375,False,0.5,0.5,Visual,19,0.5,0.5,Visual,19,2,8,0,6
72,73,354497.6961250068,1939.4354170071888,True,2,visit,visita,0.39296875,False,0.55,0.44999999999999996,Audio,2,0.55,0.44999999999999996,Audio,2,3,8,0,6
73,74,358772.6872920175,2059.430875000544,True,14,thank you,obrigado,0.3839843749999999,False,0.55,0.44999999999999996,Audio,14,0.55,0.44999999999999996,Audio,14,3,8,0,6
74,75,364511.6712499876,7222.205792029854,False,16,smile,sorrir,0.3992187499999999,False,0.55,0.44999999999999996,Audio,16,0.55,0.44999999999999996,Audio,16,3,9,0,6
75,76,373824.7280420037,978.994374978356,True,17,today,hoje,0.34921875,False,0.55,0.44999999999999996,Visual,17,0.55,0.44999999999999996,Visual,17,3,9,0,6
76,77,376814.5723339985,1318.247415998485,True,11,dinner,jantar,0.4269531249999999,False,0.55,0.44999999999999996,Visual,11,0.55,0.44999999999999996,Visual,11,3,9,0,6
77,78,380691.46075000754,1173.861916991882,True,20,nice to meet you,prazer,0.3,True,0.55,0.44999999999999996,Visual,20,0.55,0.44999999999999996,Visual,20,3,9,0,6
78,79,386674.619833997,3712.6704159891233,True,3,bread,pao,0.349609375,False,0.6050000000000001,0.3949999999999999,Audio,3,0.6050000000000001,0.3949999999999999,Audio,3,4,9,0,6
79,80,392412.5810000114,3092.549083987251,False,20,nice to meet you,prazer,0.3,False,0.6050000000000001,0.3949999999999999,Visual,20,0.6050000000000001,0.3949999999999999,Visual,20,4,9,0,7
80,81,396571.6084589949,917.3668749863282,True,19,hi,oi,0.34921875,False,0.5550000000000002,0.4449999999999999,Visual,19,0.5550000000000002,0.4449999999999999,Visual,19,4,9,1,7
81,82,399463.0892500281,3909.1957499622367,True,16,smile,sorrir,0.4488281249999999,False,0.5550000000000002,0.4449999999999999,Audio,16,0.5550000000000002,0.4449999999999999,Audio,16,4,9,1,7
82,83,405305.0880000228,2681.656916975044,True,10,virus,virus,0.28046875,False,0.6105000000000002,0.38949999999999985,Audio,10,0.6105000000000002,0.38949999999999985,Audio,10,5,9,1,7
83,84,411018.9802920213,1218.8502500066534,True,15,goodbye,adeus,0.2562500000000001,False,0.6715500000000002,0.3284499999999998,Audio,15,0.6715500000000002,0.3284499999999998,Audio,15,6,9,1,7
84,85,414263.2116670138,753.7297079688869,True,5,insect,inseto,0.20078125,False,0.7387050000000002,0.26129499999999983,Audio,5,0.7387050000000002,0.26129499999999983,Audio,5,7,9,1,7
85,86,418228.2852089848,1113.251791044604,True,16,smile,sorrir,0.4484374999999999,False,0.7387050000000002,0.26129499999999983,Audio,16,0.7387050000000002,0.26129499999999983,Audio,16,7,9,1,7
86,87,423570.3322089976,2257.2892080061138,True,4,blood,sangue,0.2249999999999999,False,0.6887050000000001,0.3112949999999998,Visual,4,0.6887050000000001,0.3112949999999998,Visual,4,7,9,2,7
87,88,428241.2497919868,1480.7305000140332,True,21,how are you,tudo bem,0.3,True,0.6887050000000001,0.3112949999999998,Visual,21,0.6887050000000001,0.3112949999999998,Visual,21,7,9,2,7
88,89,434055.9894170146,2471.7306249658577,True,8,industry,industria,0.2972656250000001,False,0.6887050000000001,0.3112949999999998,Audio,8,0.6887050000000001,0.3112949999999998,Audio,8,7,9,2,7
89,90,440129.6528339735,1914.5862080040388,False,21,how are you,tudo bem,0.3,False,0.6887050000000001,0.3112949999999998,Visual,21,0.6887050000000001,0.3112949999999998,Visual,21,7,9,2,8
90,91,450186.7353339912,3172.7637909934856,True,14,thank you,obrigado,0.3843749999999999,False,0.7575755000000002,0.24242449999999982,Audio,14,0.7575755000000002,0.24242449999999982,Audio,14,8,9,2,8
91,92,457251.6389170196,1297.0878329942934,False,20,nice to meet you,prazer,0.349609375,False,0.7575755000000002,0.24242449999999982,Visual,20,0.7575755000000002,0.24242449999999982,Visual,20,8,9,2,9
92,93,459614.3837919808,2521.2889999966137,True,3,bread,pao,0.34921875,False,0.8333330500000002,0.16666694999999976,Audio,3,0.8333330500000002,0.16666694999999976,Audio,3,9,9,2,9
93,94,464293.3853340219,3444.9499159818515,True,16,smile,sorrir,0.457421875,False,0.9166663550000003,0.08333364499999973,Audio,16,0.9166663550000003,0.08333364499999973,Audio,16,10,9,2,9
94,95,470885.0587090128,1526.3311250018887,True,11,dinner,jantar,0.37734375,False,0.8666663550000002,0.13333364499999972,Visual,11,0.8666663550000002,0.13333364499999972,Visual,11,10,9,3,9
95,96,476065.3440420283,6165.686666965485,True,17,today,hoje,0.398828125,False,0.8666663550000002,0.13333364499999972,Visual,17,0.8666663550000002,0.13333364499999972,Visual,17,10,9,3,9
96,97,484452.40125001874,8750.138874980621,True,13,yes,sim,0.3746093749999999,False,0.8666663550000002,0.13333364499999972,Visual,13,0.8666663550000002,0.13333364499999972,Visual,13,10,9,3,9
97,98,496264.15929198265,4054.6655420330353,True,19,hi,oi,0.398828125,False,0.8166663550000003,0.1833336449999997,Visual,19,0.8166663550000003,0.1833336449999997,Visual,19,10,9,4,9
98,99,502030.32908402383,inf,False,21,how are you,tudo bem,0.349609375,False,0.8166663550000003,0.1833336449999997,Visual,21,0.8166663550000003,0.1833336449999997,Visual,21,10,9,4,10
99,100,513001.17666699225,1927.0074170199225,True,20,nice to meet you,prazer,0.34921875,False,0.8166663550000003,0.1833336449999997,Visual,20,0.8166663550000003,0.1833336449999997,Visual,20,10,9,4,10
100,101,519676.37925001327,849.2333749891259,True,16,smile,sorrir,0.45703125,False,0.8983329905000004,0.10166700949999963,Audio,16,0.8983329905000004,0.10166700949999963,Audio,16,11,9,4,10
101,102,526713.9555420144,inf,False,17,today,hoje,0.4343749999999999,False,0.8983329905000004,0.10166700949999963,Visual,17,0.8983329905000004,0.10166700949999963,Visual,17,11,9,4,11
102,103,534874.6004999848,774.6267089969479,True,9,employee,empregado,0.2875000000000001,False,0.9881662895500004,0.01183371044999959,Audio,9,0.9881662895500004,0.01183371044999959,Audio,9,12,9,4,11
103,104,539781.8112919922,772.1616250346415,False,6,exam,exame,0.2999999999999999,False,0.9881662895500004,0.01183371044999959,Visual,6,0.9881662895500004,0.01183371044999959,Visual,6,12,9,4,12
104,105,543761.6082089953,1466.2392080063,True,19,hi,oi,0.3984375,False,0.9381662895500004,0.06183371044999959,Visual,19,0.9381662895500004,0.06183371044999959,Visual,19,12,9,5,12
105,106,546811.9970419793,1033.250333042815,True,13,yes,sim,0.3249999999999999,False,0.8881662895500004,0.1118337104499996,Visual,13,0.8881662895500004,0.1118337104499996,Visual,13,12,9,6,12
106,107,549870.6987919868,1786.0057080397382,True,7,elevator,elevador,0.20078125,False,0.9769829185050005,0.02301708149499948,Audio,7,0.9769829185050005,0.02301708149499948,Audio,7,13,9,6,12
107,108,555476.5112500172,7869.031999958679,False,21,how are you,tudo bem,0.3992187499999999,False,0.9769829185050005,0.02301708149499948,Visual,21,0.9769829185050005,0.02301708149499948,Visual,21,13,9,6,13
108,109,566287.82675002,4894.005041976925,True,17,today,hoje,0.435546875,False,0.9769829185050005,0.02301708149499948,Visual,17,0.9769829185050005,0.02301708149499948,Visual,17,13,9,6,13
109,110,574038.2825420238,917.4135829671286,True,2,visit,visita,0.343359375,False,1.0746812103555006,-0.07468121035550057,Audio,2,1.0746812103555006,-0.07468121035550057,Audio,2,14,9,6,13
110,111,577026.6186670051,1506.5836670110002,True,14,thank you,obrigado,0.3839843749999999,False,1.1821493313910507,-0.18214933139105072,Audio,14,1.1821493313910507,-0.18214933139105072,Audio,14,15,9,6,13
111,112,581424.4941250072,4403.791167016607,True,16,smile,sorrir,0.5066406250000001,False,1.3003642645301559,-0.30036426453015586,Audio,16,1.3003642645301559,-0.30036426453015586,Audio,16,16,9,6,13
112,113,588922.8191670263,6310.363625001628,False,21,how are you,tudo bem,0.4488281249999999,False,1.3003642645301559,-0.30036426453015586,Visual,21,1.3003642645301559,-0.30036426453015586,Visual,21,16,9,6,14
113,114,596298.0097500258,1298.246249963995,True,16,smile,sorrir,0.4570312500000001,False,1.4304006909831715,-0.43040069098317146,Audio,16,1.4304006909831715,-0.43040069098317146,Audio,16,17,9,6,14
114,115,599409.7222089767,1014.1331250197254,True,12,investment,investimento,0.20078125,False,1.3804006909831714,-0.3804006909831715,Visual,12,1.3804006909831714,-0.3804006909831715,Visual,12,17,9,7,14
115,116,603817.8250420024,inf,False,20,nice to meet you,prazer,0.398828125,False,1.3804006909831714,-0.3804006909831715,Visual,20,1.3804006909831714,-0.3804006909831715,Visual,20,17,9,7,15
116,117,614787.5971249887,4549.738792004064,False,21,how are you,tudo bem,0.4523437499999999,False,1.3804006909831714,-0.3804006909831715,Visual,21,1.3804006909831714,-0.3804006909831715,Visual,21,17,9,7,16

