,trial,start_time,rt,correct,fact_id,question,answer,alpha,new,audio_visual_chance,visual_chance,audio_or_visual_fact,fact_id,audio_visual_chance,visual_chance,audio_or_visual_fact,fact_id,correct_audio_visual,wrong_audio_visual,correct_visual,wrong_visual
0,1,9260.779750009531,2076.658083999064,True,1,car,carro,0.3,True,0.5,0.5,Audio,1,0.5,0.5,Audio,1,0,0,0,0
1,2,13485.750499996357,579.8595419910271,True,1,car,carro,0.3,False,0.5,0.5,Audio,1,0.5,0.5,Audio,1,0,0,0,0
2,3,16334.749917004956,989.685874985298,True,2,visit,visita,0.3,True,0.5,0.5,Audio,2,0.5,0.5,Audio,2,0,0,0,0
3,4,19993.33679198753,455.6647080171388,True,2,visit,visita,0.3,False,0.5,0.5,Audio,2,0.5,0.5,Audio,2,0,0,0,0
4,5,23105.88729201117,1103.3801669836976,True,3,bread,pao,0.3,True,0.5,0.5,Visual,3,0.5,0.5,Visual,3,0,0,0,0
5,6,26541.974541993117,inf,True,4,blood,sangue,0.3,True,0.5,0.5,Audio,4,0.5,0.5,Audio,4,0,0,0,0
6,7,32005.995584011544,1291.6954579995945,True,3,bread,pao,0.3,False,0.5,0.5,Visual,3,0.5,0.5,Visual,3,0,0,0,0
7,8,35597.67429198837,800.9333329973742,True,4,blood,sangue,0.3,False,0.5,0.5,Audio,4,0.5,0.5,Audio,4,0,0,0,0
8,9,38697.31049999245,1090.0636670121455,True,5,insect,inseto,0.3,True,0.5,0.5,Visual,5,0.5,0.5,Visual,5,0,0,0,0
9,10,43264.99545900151,960.492374986643,True,6,exam,exame,0.3,True,0.5,0.5,Visual,6,0.5,0.5,Visual,6,0,0,0,0
10,11,46579.56391701009,757.6701669895556,True,5,insect,inseto,0.3,False,0.5,0.5,Visual,5,0.5,0.5,Visual,5,0,0,0,0
11,12,49737.77904198505,666.8741670146119,True,6,exam,exame,0.3,False,0.5,0.5,Visual,6,0.5,0.5,Visual,6,0,0,0,0
12,13,52716.26445898437,1102.8766660019755,True,7,elevator,elevador,0.3,True,0.5,0.5,Audio,7,0.5,0.5,Audio,7,0,0,0,0
13,14,58702.84574999823,1043.8112920091953,True,1,car,carro,0.250390625,False,0.5,0.5,Audio,1,0.5,0.5,Audio,1,0,0,0,0
14,15,61863.60250000144,977.5854169856756,True,7,elevator,elevador,0.3,False,0.5,0.5,Audio,7,0.5,0.5,Audio,7,0,0,0,0
15,16,66415.03362500225,893.5820839833468,True,2,visit,visita,0.250390625,False,0.5,0.5,Audio,2,0.5,0.5,Audio,2,0,0,0,0
16,17,69867.21450000186,1172.462958988035,True,8,industry,industria,0.3,True,0.5,0.5,Audio,8,0.5,0.5,Audio,8,0,0,0,0
17,18,74528.97854198818,1140.3930830128957,True,9,employee,empregado,0.3,True,0.5,0.5,Audio,9,0.5,0.5,Audio,9,0,0,0,0
18,19,78961.68266699533,861.2900830048602,True,8,industry,industria,0.3,False,0.5,0.5,Audio,8,0.5,0.5,Audio,8,0,0,0,0
19,20,84131.55579200247,1118.6007919895928,True,9,employee,empregado,0.3,False,0.5,0.5,Audio,9,0.5,0.5,Audio,9,0,0,0,0
20,21,88701.63616701029,1120.3902080014814,True,3,bread,pao,0.250390625,False,0.5,0.5,Visual,3,0.5,0.5,Visual,3,0,0,0,0
21,22,92573.95654200808,1305.0494579947554,True,4,blood,sangue,0.250390625,False,0.5,0.5,Audio,4,0.5,0.5,Audio,4,0,0,0,0
22,23,97907.08704199642,903.5977500025184,True,5,insect,inseto,0.250390625,False,0.5,0.5,Visual,5,0.5,0.5,Visual,5,0,0,0,0
23,24,101566.14241699572,776.6651250130963,True,6,exam,exame,0.250390625,False,0.5,0.5,Visual,6,0.5,0.5,Visual,6,0,0,0,0
24,25,104728.32212501088,1067.8807919903193,True,10,virus,virus,0.3,True,0.5,0.5,Audio,10,0.5,0.5,Audio,10,0,0,0,0
25,26,110499.72287498532,871.7167090217117,True,7,elevator,elevador,0.250390625,False,0.5,0.5,Audio,7,0.5,0.5,Audio,7,0,0,0,0
26,27,114765.65749998554,939.4961670041084,True,10,virus,virus,0.3,False,0.5,0.5,Audio,10,0.5,0.5,Audio,10,0,0,0,0
27,28,118301.57624999993,1062.387292011408,True,11,dinner,jantar,0.3,True,0.5,0.5,Visual,11,0.5,0.5,Visual,11,0,0,0,0
28,29,121950.7418749854,1009.4514170195908,True,12,investment,investimento,0.3,True,0.5,0.5,Audio,12,0.5,0.5,Audio,12,0,0,0,0
29,30,126776.29062498454,961.802917008754,True,11,dinner,jantar,0.3,False,0.5,0.5,Visual,11,0.5,0.5,Visual,11,0,0,0,0
30,31,130177.49891700804,854.4226669764612,True,12,investment,investimento,0.3,False,0.5,0.5,Audio,12,0.5,0.5,Audio,12,0,0,0,0
31,32,134612.0509589964,890.368041000329,True,8,industry,industria,0.250390625,False,0.5,0.5,Audio,8,0.5,0.5,Audio,8,0,0,0,0
32,33,139000.73437500396,1108.398166979896,True,9,employee,empregado,0.250390625,False,0.5,0.5,Audio,9,0.5,0.5,Audio,9,0,0,0,0
33,34,143298.59554200084,1189.6063330059403,True,13,yes,sim,0.3,True,0.5,0.5,Visual,13,0.5,0.5,Visual,13,0,0,0,0
34,35,146631.52058399282,1178.1006660021376,True,14,thank you,obrigado,0.3,True,0.5,0.5,Audio,14,0.5,0.5,Audio,14,0,0,0,0
35,36,151528.4296250029,868.157833989244,True,13,yes,sim,0.3,False,0.5,0.5,Visual,13,0.5,0.5,Visual,13,0,0,0,0
36,37,154191.56454200856,797.7112079970539,True,14,thank you,obrigado,0.3,False,0.5,0.5,Audio,14,0.5,0.5,Audio,14,0,0,0,0
37,38,159577.77904201066,1937.0491669978944,True,15,goodbye,adeus,0.3,True,0.5,0.5,Visual,15,0.5,0.5,Visual,15,0,0,0,0
38,39,164568.9528750081,947.2021669789684,True,10,virus,virus,0.250390625,False,0.5,0.5,Audio,10,0.5,0.5,Audio,10,0,0,0,0
39,40,168180.59800000628,673.5488749982323,True,15,goodbye,adeus,0.3,False,0.5,0.5,Visual,15,0.5,0.5,Visual,15,0,0,0,0
40,41,172349.0458749875,913.6665840051136,True,16,smile,sorrir,0.3,True,0.5,0.5,Visual,16,0.5,0.5,Visual,16,0,0,0,0
41,42,175789.817959012,inf,True,11,dinner,jantar,0.349609375,False,0.5,0.5,Visual,11,0.5,0.5,Visual,11,0,0,0,0
42,43,187973.9385840076,8178.645457985112,False,16,smile,sorrir,0.3,False,0.5,0.5,Visual,16,0.5,0.5,Visual,16,0,0,0,1
43,44,198449.86074999903,1190.0914589932654,True,12,investment,investimento,0.250390625,False,0.5,0.5,Audio,12,0.5,0.5,Audio,12,0,0,0,1
44,45,203764.7832499933,1557.6442500168923,True,13,yes,sim,0.250390625,False,0.5,0.5,Visual,13,0.5,0.5,Visual,13,0,0,0,1
45,46,207217.10587499547,1042.8402920078952,True,14,thank you,obrigado,0.250390625,False,0.5,0.5,Audio,14,0.5,0.5,Audio,14,0,0,0,1
46,47,212010.09925000835,1257.5731669785455,True,17,today,hoje,0.3,True,0.5,0.5,Visual,17,0.5,0.5,Visual,17,0,0,0,1
47,48,216148.41875000275,3663.864125002874,True,15,goodbye,adeus,0.349609375,False,0.5,0.5,Visual,15,0.5,0.5,Visual,15,0,0,0,1
48,49,223476.63762499,10750.745291996282,False,17,today,hoje,0.3,False,0.5,0.5,Visual,17,0.5,0.5,Visual,17,0,0,0,2
49,50,235290.2957919869,4793.952917010756,False,11,dinner,jantar,0.3992187499999999,False,0.5,0.5,Visual,11,0.5,0.5,Visual,11,0,0,0,3
50,51,245949.8930000118,1261.477041989565,True,16,smile,sorrir,0.250390625,False,0.5,0.5,Visual,16,0.5,0.5,Visual,16,0,0,0,3
51,52,249523.74908400816,1258.4993329946883,True,18,airport,aeroporto,0.3,True,0.5,0.5,Audio,18,0.5,0.5,Audio,18,0,0,0,3
52,53,254878.50562500532,1053.8323749788103,True,19,hi,oi,0.3,True,0.5,0.5,Audio,19,0.5,0.5,Audio,19,0,0,0,3
53,54,257864.6990839916,828.0027910077479,True,18,airport,aeroporto,0.3,False,0.5,0.5,Audio,18,0.5,0.5,Audio,18,0,0,0,3
54,55,261691.91508399672,1122.50937501085,True,19,hi,oi,0.3,False,0.5,0.5,Audio,19,0.5,0.5,Audio,19,0,0,0,3
55,56,264729.12400000496,1304.526416992303,True,15,goodbye,adeus,0.3,False,0.44999999999999996,0.55,Visual,15,0.44999999999999996,0.55,Visual,15,0,0,1,3
56,57,269043.0815840082,1543.3820829784963,True,11,dinner,jantar,0.398828125,False,0.44999999999999996,0.55,Visual,11,0.44999999999999996,0.55,Visual,11,0,0,1,3
57,58,273083.9135840069,1904.8022079805376,True,17,today,hoje,0.250390625,False,0.44999999999999996,0.55,Visual,17,0.44999999999999996,0.55,Visual,17,0,0,1,3
58,59,278074.7442090069,1357.366707990877,True,20,nice to meet you,prazer,0.3,True,0.44999999999999996,0.55,Visual,20,0.44999999999999996,0.55,Visual,20,0,0,1,3
59,60,284138.8509589888,1771.546625008341,False,21,you're welcome,de nada,0.3,True,0.44999999999999996,0.55,Audio,21,0.44999999999999996,0.55,Audio,21,0,0,1,3
60,61,300678.5921670089,20159.66995799681,False,20,nice to meet you,prazer,0.3,False,0.44999999999999996,0.55,Visual,20,0.44999999999999996,0.55,Visual,20,0,0,1,4
61,62,321903.6405420047,3368.998791993363,False,21,you're welcome,de nada,0.3,False,0.44999999999999996,0.55,Audio,21,0.44999999999999996,0.55,Audio,21,0,1,1,4
62,63,329795.34783400595,895.8140829927288,True,18,airport,aeroporto,0.250390625,False,0.44999999999999996,0.55,Audio,18,0.44999999999999996,0.55,Audio,18,0,1,1,4
63,64,333448.3621249965,917.2052500071004,True,19,hi,oi,0.250390625,False,0.44999999999999996,0.55,Audio,19,0.44999999999999996,0.55,Audio,19,0,1,1,4
64,65,336302.14216699824,1299.3937919964085,True,11,dinner,jantar,0.34921875,False,0.44999999999999996,0.55,Visual,11,0.44999999999999996,0.55,Visual,11,0,1,1,4
65,66,339963.0200419924,755.8213330048602,True,1,car,carro,0.20078125,False,0.49999999999999994,0.5,Audio,1,0.49999999999999994,0.5,Audio,1,1,1,1,4
66,67,342944.10870899446,820.6956660142168,True,2,visit,visita,0.20078125,False,0.5499999999999999,0.45000000000000007,Audio,2,0.5499999999999999,0.45000000000000007,Audio,2,2,1,1,4
67,68,346112.05424999935,1305.87337500765,True,22,how are you,tudo bem,0.3,True,0.5499999999999999,0.45000000000000007,Audio,22,0.5499999999999999,0.45000000000000007,Audio,22,2,1,1,4
68,69,351675.4895419872,24732.360542024253,False,20,nice to meet you,prazer,0.349609375,False,0.5499999999999999,0.45000000000000007,Visual,20,0.5499999999999999,0.45000000000000007,Visual,20,2,1,1,5
69,70,395159.344374988,2432.8485840233043,False,22,how are you,tudo bem,0.3,False,0.5499999999999999,0.45000000000000007,Audio,22,0.5499999999999999,0.45000000000000007,Audio,22,2,2,1,5
70,71,403744.24937498407,2108.860917011043,False,21,you're welcome,de nada,0.349609375,False,0.5499999999999999,0.45000000000000007,Audio,21,0.5499999999999999,0.45000000000000007,Audio,21,2,3,1,5
71,72,410170.2397500048,13174.487499985844,True,20,nice to meet you,prazer,0.3992187499999999,False,0.5499999999999999,0.45000000000000007,Visual,20,0.5499999999999999,0.45000000000000007,Visual,20,2,3,1,5
72,73,427936.6117090103,890.8155829994939,True,6,exam,exame,0.20078125,False,0.4999999999999999,0.5000000000000001,Visual,6,0.4999999999999999,0.5000000000000001,Visual,6,2,3,2,5
73,74,431201.4209589979,847.5294999952894,True,5,insect,inseto,0.20078125,False,0.44999999999999984,0.5500000000000002,Visual,5,0.44999999999999984,0.5500000000000002,Visual,5,2,3,3,5
74,75,434691.481249989,3662.478584010387,True,3,bread,pao,0.2999999999999999,False,0.3949999999999998,0.6050000000000002,Visual,3,0.3949999999999998,0.6050000000000002,Visual,3,2,3,4,5
75,76,440811.6587499972,1228.2206249947194,True,4,blood,sangue,0.20078125,False,0.4449999999999998,0.5550000000000002,Audio,4,0.4449999999999998,0.5550000000000002,Audio,4,3,3,4,5
76,77,444457.65875000507,5169.140208978206,True,20,nice to meet you,prazer,0.4371093749999999,False,0.4449999999999998,0.5550000000000002,Visual,20,0.4449999999999998,0.5550000000000002,Visual,20,3,3,4,5
77,78,455183.33875000826,inf,False,21,you're welcome,de nada,0.3835937499999999,False,0.4449999999999998,0.5550000000000002,Audio,21,0.4449999999999998,0.5550000000000002,Audio,21,3,4,4,5
78,79,464988.60004200833,inf,True,22,how are you,tudo bem,0.3253906249999999,False,0.4449999999999998,0.5550000000000002,Audio,22,0.4449999999999998,0.5550000000000002,Audio,22,3,4,4,5
79,80,490463.3192089968,2780.194916005712,True,20,nice to meet you,prazer,0.4484374999999999,False,0.38949999999999985,0.6105000000000002,Visual,20,0.38949999999999985,0.6105000000000002,Visual,20,3,4,5,5
80,81,498515.1267919864,894.7082080121618,True,7,elevator,elevador,0.20078125,False,0.43949999999999984,0.5605000000000002,Audio,7,0.43949999999999984,0.5605000000000002,Audio,7,4,4,5,5
81,82,502855.09550001007,1504.3689999729395,True,8,industry,industria,0.20078125,False,0.4894999999999998,0.5105000000000002,Audio,8,0.4894999999999998,0.5105000000000002,Audio,8,5,4,5,5
82,83,507612.2460839979,3688.915458013071,False,21,you're welcome,de nada,0.3839843749999999,False,0.4894999999999998,0.5105000000000002,Audio,21,0.4894999999999998,0.5105000000000002,Audio,21,5,5,5,5
83,84,538969.410708989,1630.8847500185948,True,20,nice to meet you,prazer,0.4480468749999999,False,0.4384499999999998,0.5615500000000002,Visual,20,0.4384499999999998,0.5615500000000002,Visual,20,5,5,6,5
84,85,544003.5084999981,1515.3662500088103,True,9,employee,empregado,0.20078125,False,0.4884499999999998,0.5115500000000002,Audio,9,0.4884499999999998,0.5115500000000002,Audio,9,6,5,6,5
85,86,548373.1125839986,1796.0004580090754,True,15,goodbye,adeus,0.2503906250000001,False,0.43729499999999977,0.5627050000000002,Visual,15,0.43729499999999977,0.5627050000000002,Visual,15,6,5,7,5
86,87,552874.6887499874,917.6073340058792,True,10,virus,virus,0.20078125,False,0.48729499999999976,0.5127050000000002,Audio,10,0.48729499999999976,0.5127050000000002,Audio,10,7,5,7,5
87,88,556205.1634590025,2699.34037499479,False,22,how are you,tudo bem,0.3749999999999999,False,0.48729499999999976,0.5127050000000002,Audio,22,0.48729499999999976,0.5127050000000002,Audio,22,7,6,7,5
88,89,562345.1752089895,2137.3818750143982,True,3,bread,pao,0.2628906249999999,False,0.4360244999999998,0.5639755000000002,Visual,3,0.4360244999999998,0.5639755000000002,Visual,3,7,6,8,5
89,90,566671.7197090038,inf,True,14,thank you,obrigado,0.2999999999999999,False,0.4860244999999998,0.5139755000000001,Audio,14,0.4860244999999998,0.5139755000000001,Audio,14,8,6,8,5
90,91,573111.3697089895,2647.3570830130484,False,13,yes,sim,0.2999999999999999,False,0.4860244999999998,0.5139755000000001,Visual,13,0.4860244999999998,0.5139755000000001,Visual,13,8,6,8,6
91,92,578498.1734169996,inf,True,12,investment,investimento,0.2999999999999999,False,0.5360244999999998,0.4639755000000002,Audio,12,0.5360244999999998,0.4639755000000002,Audio,12,9,6,8,6
92,93,587482.9595419869,5130.925375007791,True,11,dinner,jantar,0.398828125,False,0.48602449999999975,0.5139755000000003,Visual,11,0.48602449999999975,0.5139755000000003,Visual,11,9,6,9,6
93,94,594814.930166991,2132.0113750116434,True,20,nice to meet you,prazer,0.44765625,False,0.43462694999999973,0.5653730500000003,Visual,20,0.43462694999999973,0.5653730500000003,Visual,20,9,6,10,6
94,95,603025.2042920038,1259.01487498777,False,21,you're welcome,de nada,0.4335937499999999,False,0.43462694999999973,0.5653730500000003,Audio,21,0.43462694999999973,0.5653730500000003,Audio,21,9,7,10,6

