,trial,start_time,rt,correct,fact_id,question,answer,alpha,new,audio_visual_chance,visual_chance,audio_or_visual_fact,fact_id,audio_visual_chance,visual_chance,audio_or_visual_fact,fact_id,correct_audio_visual,wrong_audio_visual,correct_visual,wrong_visual
0,1,16039.857054000096,1531.6689819992462,False,1,car,carro,0.3,True,0.5,0.5,Audio,1,0.5,0.5,Audio,1,0,0,0,0
1,2,25086.797287998703,1090.2056330014602,True,1,car,carro,0.3,False,0.5,0.5,Audio,1,0.5,0.5,Audio,1,0,0,0,0
2,3,27924.474767998618,1295.8449280013156,True,2,visit,visita,0.3,True,0.5,0.5,Audio,2,0.5,0.5,Audio,2,0,0,0,0
3,4,31889.13848799893,1504.7683320008218,True,2,visit,visita,0.3,False,0.5,0.5,Audio,2,0.5,0.5,Audio,2,0,0,0,0
4,5,35570.72727400009,1766.2325789988245,True,3,bread,pao,0.3,True,0.5,0.5,Visual,3,0.5,0.5,Visual,3,0,0,0,0
5,6,39737.34770899864,2419.6393670008547,True,4,blood,sangue,0.3,True,0.5,0.5,Visual,4,0.5,0.5,Visual,4,0,0,0,0
6,7,44434.48180999985,941.6784450004344,True,3,bread,pao,0.3,False,0.5,0.5,Visual,3,0.5,0.5,Visual,3,0,0,0,0
7,8,47407.55923799952,733.870707999813,True,4,blood,sangue,0.3,False,0.5,0.5,Visual,4,0.5,0.5,Visual,4,0,0,0,0
8,9,50021.88162499988,1422.2493479992409,True,5,insect,inseto,0.3,True,0.5,0.5,Visual,5,0.5,0.5,Visual,5,0,0,0,0
9,10,53596.45741500026,1527.3347449983703,True,6,exam,exame,0.3,True,0.5,0.5,Audio,6,0.5,0.5,Audio,6,0,0,0,0
10,11,57039.455438000005,863.1713180002407,True,5,insect,inseto,0.3,False,0.5,0.5,Visual,5,0.5,0.5,Visual,5,0,0,0,0
11,12,60033.54963399943,922.6197829993908,True,6,exam,exame,0.3,False,0.5,0.5,Audio,6,0.5,0.5,Audio,6,0,0,0,0
12,13,63006.015832999765,2227.4096479995933,True,7,elevator,elevador,0.3,True,0.5,0.5,Visual,7,0.5,0.5,Visual,7,0,0,0,0
13,14,67696.66799799961,1200.429754999277,True,8,industry,industria,0.3,True,0.5,0.5,Visual,8,0.5,0.5,Visual,8,0,0,0,0
14,15,71606.07838800024,1121.6896299993095,True,7,elevator,elevador,0.3,False,0.5,0.5,Visual,7,0.5,0.5,Visual,7,0,0,0,0
15,16,75247.7701939988,997.6499770000372,True,8,industry,industria,0.3,False,0.5,0.5,Visual,8,0.5,0.5,Visual,8,0,0,0,0
16,17,80205.72662999984,1143.472642999768,True,2,visit,visita,0.250390625,False,0.5,0.5,Audio,2,0.5,0.5,Audio,2,0,0,0,0
17,18,83188.35239799955,935.8931459992164,True,1,car,carro,0.250390625,False,0.5,0.5,Audio,1,0.5,0.5,Audio,1,0,0,0,0
18,19,85643.99644999867,1388.1317440009298,True,9,employee,empregado,0.3,True,0.5,0.5,Audio,9,0.5,0.5,Audio,9,0,0,0,0
19,20,90655.06871899925,1146.9165960006649,True,10,virus,virus,0.3,True,0.5,0.5,Audio,10,0.5,0.5,Audio,10,0,0,0,0
20,21,93641.34301999913,3182.513326999469,True,9,employee,empregado,0.3,False,0.5,0.5,Audio,9,0.5,0.5,Audio,9,0,0,0,0
21,22,99493.5703079991,862.3453640011576,True,10,virus,virus,0.3,False,0.5,0.5,Audio,10,0.5,0.5,Audio,10,0,0,0,0
22,23,102252.85869799882,1327.7490279997437,True,3,bread,pao,0.250390625,False,0.5,0.5,Visual,3,0.5,0.5,Visual,3,0,0,0,0
23,24,105524.80595599992,1488.3665799989103,True,4,blood,sangue,0.250390625,False,0.5,0.5,Visual,4,0.5,0.5,Visual,4,0,0,0,0
24,25,109319.30441499937,1236.432634999801,True,5,insect,inseto,0.250390625,False,0.5,0.5,Visual,5,0.5,0.5,Visual,5,0,0,0,0
25,26,112768.26974799953,864.7758690003684,True,6,exam,exame,0.250390625,False,0.5,0.5,Audio,6,0.5,0.5,Audio,6,0,0,0,0
26,27,115634.51553999948,1323.4737120001228,True,11,dinner,jantar,0.3,True,0.5,0.5,Audio,11,0.5,0.5,Audio,11,0,0,0,0
27,28,118988.15030399965,2247.7148809994105,True,7,elevator,elevador,0.274609375,False,0.5,0.5,Visual,7,0.5,0.5,Visual,7,0,0,0,0
28,29,123469.27116699952,3901.371162999567,False,11,dinner,jantar,0.3,False,0.5,0.5,Audio,11,0.5,0.5,Audio,11,0,1,0,0
29,30,128432.92211599874,1246.321391001402,True,8,industry,industria,0.250390625,False,0.5,0.5,Visual,8,0.5,0.5,Visual,8,0,1,0,0
30,31,135494.57394099954,1335.7563339995977,True,12,investment,investimento,0.3,True,0.5,0.5,Audio,12,0.5,0.5,Audio,12,0,1,0,0
31,32,139426.830639999,1564.6195500012254,True,9,employee,empregado,0.250390625,False,0.5,0.5,Audio,9,0.5,0.5,Audio,9,0,1,0,0
32,33,143804.9224159986,1097.2887850002735,True,12,investment,investimento,0.3,False,0.5,0.5,Audio,12,0.5,0.5,Audio,12,0,1,0,0
33,34,147405.62733299885,956.9076480001968,True,10,virus,virus,0.250390625,False,0.5,0.5,Audio,10,0.5,0.5,Audio,10,0,1,0,0
34,35,150250.51918200008,1325.4291849989097,True,13,yes,sim,0.3,True,0.5,0.5,Visual,13,0.5,0.5,Visual,13,0,1,0,0
35,36,153335.996324,2145.431876999268,True,14,thank you,obrigado,0.3,True,0.5,0.5,Audio,14,0.5,0.5,Audio,14,0,1,0,0
36,37,157920.7623179991,1143.2163720001115,True,13,yes,sim,0.3,False,0.5,0.5,Visual,13,0.5,0.5,Visual,13,0,1,0,0
37,38,160599.04952599935,1299.9992820005282,True,14,thank you,obrigado,0.3,False,0.5,0.5,Audio,14,0.5,0.5,Audio,14,0,1,0,0
38,39,166036.07843999998,2014.5717420000287,True,15,goodbye,adeus,0.3,True,0.5,0.5,Visual,15,0.5,0.5,Visual,15,0,1,0,0
39,40,170437.6003489997,2490.7142419997544,False,11,dinner,jantar,0.349609375,False,0.5,0.5,Audio,11,0.5,0.5,Audio,11,0,2,0,0
40,41,173991.02125599893,1672.2416740012704,True,15,goodbye,adeus,0.3,False,0.5,0.5,Visual,15,0.5,0.5,Visual,15,0,2,0,0
41,42,177822.69589099998,1286.199139000004,True,16,smile,sorrir,0.3,True,0.5,0.5,Audio,16,0.5,0.5,Audio,16,0,2,0,0
42,43,181047.9644199986,1090.0645230012888,True,17,today,hoje,0.3,True,0.5,0.5,Visual,17,0.5,0.5,Visual,17,0,2,0,0
43,44,185603.43211799956,3224.44987100063,False,16,smile,sorrir,0.3,False,0.5,0.5,Audio,16,0.5,0.5,Audio,16,0,3,0,0
44,45,190823.513157,2360.880268999608,False,17,today,hoje,0.3,False,0.5,0.5,Visual,17,0.5,0.5,Visual,17,0,3,0,1
45,46,194245.8882020001,1374.729507999291,True,12,investment,investimento,0.250390625,False,0.5,0.5,Audio,12,0.5,0.5,Audio,12,0,3,0,1
46,47,198042.7635569995,1158.109448999283,True,18,airport,aeroporto,0.3,True,0.5,0.5,Visual,18,0.5,0.5,Visual,18,0,3,0,1
47,48,201325.74619200025,1172.472008000128,True,19,hi,oi,0.3,True,0.5,0.5,Visual,19,0.5,0.5,Visual,19,0,3,0,1
48,49,204135.2164349992,1520.6223650002212,True,18,airport,aeroporto,0.3,False,0.5,0.5,Visual,18,0.5,0.5,Visual,18,0,3,0,1
49,50,207626.0893789986,1251.161118001619,True,19,hi,oi,0.3,False,0.5,0.5,Visual,19,0.5,0.5,Visual,19,0,3,0,1
50,51,210489.724310999,1317.2216189996109,True,13,yes,sim,0.250390625,False,0.5,0.5,Visual,13,0.5,0.5,Visual,13,0,3,0,1
51,52,213292.9124599996,1177.5289229990449,True,14,thank you,obrigado,0.250390625,False,0.5,0.5,Audio,14,0.5,0.5,Audio,14,0,3,0,1
52,53,217075.59751199916,1280.3683490001422,True,11,dinner,jantar,0.34921875,False,0.5,0.5,Audio,11,0.5,0.5,Audio,11,0,3,0,1
53,54,220097.13029900013,1378.774017999589,True,15,goodbye,adeus,0.250390625,False,0.5,0.5,Visual,15,0.5,0.5,Visual,15,0,3,0,1
54,55,223511.70552999972,1412.1846489997697,True,20,nice to meet you,prazer,0.3,True,0.5,0.5,Visual,20,0.5,0.5,Visual,20,0,3,0,1
55,56,228350.3773779994,1221.166543000436,True,22,how are you,tudo bem,0.3,True,0.5,0.5,Audio,22,0.5,0.5,Audio,22,0,3,0,1
56,57,232430.9366999987,2893.866682999942,False,20,nice to meet you,prazer,0.3,False,0.5,0.5,Visual,20,0.5,0.5,Visual,20,0,3,0,2
57,58,239279.0384780001,inf,True,22,how are you,tudo bem,0.3,False,0.5,0.5,Audio,22,0.5,0.5,Audio,22,0,3,0,2
58,59,246732.17583199948,1577.7620659991808,False,16,smile,sorrir,0.349609375,False,0.5,0.5,Audio,16,0.5,0.5,Audio,16,0,4,0,2
59,60,250342.46536499995,2550.4875419992604,False,17,today,hoje,0.349609375,False,0.5,0.5,Visual,17,0.5,0.5,Visual,17,0,4,0,3
60,61,253954.29285699903,936.3528220001026,True,18,airport,aeroporto,0.250390625,False,0.5,0.5,Visual,18,0.5,0.5,Visual,18,0,4,0,3
61,62,257234.75834799864,961.0843260015828,True,19,hi,oi,0.250390625,False,0.5,0.5,Visual,19,0.5,0.5,Visual,19,0,4,0,3
62,63,259616.34789399977,1262.1265809994077,True,23,week,semana,0.3,True,0.5,0.5,Visual,23,0.5,0.5,Visual,23,0,4,0,3
63,64,262484.002580999,1213.247436000558,True,24,year,ano,0.3,True,0.5,0.5,Audio,24,0.5,0.5,Audio,24,0,4,0,3
64,65,265307.9961959993,1448.9491309995649,False,23,week,semana,0.3,False,0.5,0.5,Visual,23,0.5,0.5,Visual,23,0,4,0,4
65,66,267818.61924700026,1037.1054239985533,True,24,year,ano,0.3,False,0.5,0.5,Audio,24,0.5,0.5,Audio,24,0,4,0,4
66,67,270421.36571799894,1290.3686669996823,True,25,yesterday,ontem,0.3,True,0.5,0.5,Audio,25,0.5,0.5,Audio,25,0,4,0,4
67,68,274250.7105579989,1368.4565969997202,True,26,tomorrow,amanha,0.3,True,0.5,0.5,Audio,26,0.5,0.5,Audio,26,0,4,0,4
68,69,277802.38041899976,2292.690186999564,True,25,yesterday,ontem,0.3,False,0.5,0.5,Audio,25,0.5,0.5,Audio,25,0,4,0,4
69,70,283087.46663499915,698.4654330008198,True,26,tomorrow,amanha,0.3,False,0.5,0.5,Audio,26,0.5,0.5,Audio,26,0,4,0,4
70,71,285788.4702329993,2310.104883999913,False,20,nice to meet you,prazer,0.349609375,False,0.5,0.5,Visual,20,0.5,0.5,Visual,20,0,4,0,5
71,72,289788.2786029986,2566.795216000173,True,16,smile,sorrir,0.3992187499999999,False,0.5,0.5,Audio,16,0.5,0.5,Audio,16,0,4,0,5
72,73,294126.87562599964,1248.1994059999706,True,22,how are you,tudo bem,0.250390625,False,0.5,0.5,Audio,22,0.5,0.5,Audio,22,0,4,0,5
73,74,298817.93576699967,3638.2826629997,False,17,today,hoje,0.3992187499999999,False,0.5,0.5,Visual,17,0.5,0.5,Visual,17,0,4,0,6
74,75,303519.4023129989,1315.1314900005236,True,11,dinner,jantar,0.299609375,False,0.5,0.5,Audio,11,0.5,0.5,Audio,11,0,4,0,6
75,76,306569.12140999886,1570.158317999798,True,7,elevator,elevador,0.225,False,0.5,0.5,Visual,7,0.5,0.5,Visual,7,0,4,1,6
76,77,310286.9684420002,3682.3348319994975,True,23,week,semana,0.349609375,False,0.5,0.5,Visual,23,0.5,0.5,Visual,23,0,4,1,6
77,78,316886.23315099906,1130.746188000543,True,24,year,ano,0.250390625,False,0.5,0.5,Audio,24,0.5,0.5,Audio,24,0,4,1,6
78,79,321152.1330849992,1206.8222380002844,True,16,smile,sorrir,0.3746093749999999,False,0.5,0.5,Audio,16,0.5,0.5,Audio,16,0,4,1,6
79,80,324050.5250839997,1416.3319679992271,False,25,yesterday,ontem,0.349609375,False,0.5,0.5,Audio,25,0.5,0.5,Audio,25,0,5,1,6
80,81,327559.52130100015,1508.5386119990144,True,17,today,hoje,0.398828125,False,0.5,0.5,Visual,17,0.5,0.5,Visual,17,0,5,1,6
81,82,330786.62207900017,5365.798624999996,False,20,nice to meet you,prazer,0.3992187499999999,False,0.5,0.5,Visual,20,0.5,0.5,Visual,20,0,5,1,7
82,83,337214.41171100014,1362.5492379997158,True,26,tomorrow,amanha,0.250390625,False,0.5,0.5,Audio,26,0.5,0.5,Audio,26,0,5,1,7
83,84,340847.168753,1374.4484349990962,True,27,can,poder,0.3,True,0.5,0.5,Visual,27,0.5,0.5,Visual,27,0,5,1,7
84,85,343839.88919399964,inf,True,28,use,usar,0.3,True,0.5,0.5,Visual,28,0.5,0.5,Visual,28,0,5,1,7
85,86,347709.46191300027,2711.6848239984247,False,27,can,poder,0.3,False,0.5,0.5,Visual,27,0.5,0.5,Visual,27,0,5,1,8
86,87,351867.66566000006,1031.539146999421,True,28,use,usar,0.3,False,0.5,0.5,Visual,28,0.5,0.5,Visual,28,0,5,1,8
87,88,354324.0661479995,1759.8512469994605,False,23,week,semana,0.3992187499999999,False,0.5,0.5,Visual,23,0.5,0.5,Visual,23,0,5,1,9
88,89,358765.56337999867,1041.432673000556,True,2,visit,visita,0.20078125,False,0.55,0.44999999999999996,Audio,2,0.55,0.44999999999999996,Audio,2,1,5,1,9
89,90,361489.0948949997,4277.558511999843,True,20,nice to meet you,prazer,0.4488281249999999,False,0.55,0.44999999999999996,Visual,20,0.55,0.44999999999999996,Visual,20,1,5,1,9
90,91,369622.3249189989,2135.4149030012195,False,25,yesterday,ontem,0.3992187499999999,False,0.55,0.44999999999999996,Audio,25,0.55,0.44999999999999996,Audio,25,1,6,1,9
91,92,373982.878625,1077.487567999924,True,29,do,fazer,0.3,True,0.55,0.44999999999999996,Visual,29,0.55,0.44999999999999996,Visual,29,1,6,1,9
92,93,376391.084597999,1051.7713500012178,True,30,far,longe,0.3,True,0.55,0.44999999999999996,Visual,30,0.55,0.44999999999999996,Visual,30,1,6,1,9
93,94,379100.8109459999,4877.577721999842,False,29,do,fazer,0.3,False,0.55,0.44999999999999996,Visual,29,0.55,0.44999999999999996,Visual,29,1,6,1,10
94,95,385040.50592099887,1420.2246599997743,False,30,far,longe,0.3,False,0.55,0.44999999999999996,Visual,30,0.55,0.44999999999999996,Visual,30,1,6,1,11
95,96,387521.5245379986,inf,True,20,nice to meet you,prazer,0.4742187499999999,False,0.55,0.44999999999999996,Visual,20,0.55,0.44999999999999996,Visual,20,1,6,1,11
96,97,396320.596869,1958.705326998781,False,23,week,semana,0.4488281249999999,False,0.55,0.44999999999999996,Visual,23,0.55,0.44999999999999996,Visual,23,1,6,1,12
97,98,400621.9899179996,1981.8003769996576,True,17,today,hoje,0.3984375,False,0.55,0.44999999999999996,Visual,17,0.55,0.44999999999999996,Visual,17,1,6,1,12
98,99,404302.7093259989,2841.8011360008386,False,27,can,poder,0.349609375,False,0.55,0.44999999999999996,Visual,27,0.55,0.44999999999999996,Visual,27,1,6,1,13
99,100,408424.05020299886,2649.4914030008367,True,25,yesterday,ontem,0.4363281249999999,False,0.55,0.44999999999999996,Audio,25,0.55,0.44999999999999996,Audio,25,1,6,1,13
100,101,413524.1575709988,1397.8206610009074,True,28,use,usar,0.250390625,False,0.55,0.44999999999999996,Visual,28,0.55,0.44999999999999996,Visual,28,1,6,1,13
101,102,416348.0917670004,2076.0742819984443,True,20,nice to meet you,prazer,0.4660156249999999,False,0.5,0.49999999999999994,Visual,20,0.5,0.49999999999999994,Visual,20,1,6,2,13
102,103,421329.1612379999,2022.894739999203,True,23,week,semana,0.4484374999999999,False,0.5,0.49999999999999994,Visual,23,0.5,0.49999999999999994,Visual,23,1,6,2,13
103,104,424871.1913489988,1487.4673710000934,True,1,car,carro,0.20078125,False,0.55,0.44999999999999996,Audio,1,0.55,0.44999999999999996,Audio,1,2,6,2,13
104,105,427828.4715689988,3714.872780001373,False,29,do,fazer,0.349609375,False,0.55,0.44999999999999996,Visual,29,0.55,0.44999999999999996,Visual,29,2,6,2,14
105,106,432966.25236499857,1238.232183000946,True,16,smile,sorrir,0.3656249999999998,False,0.6050000000000001,0.3949999999999999,Audio,16,0.6050000000000001,0.3949999999999999,Audio,16,3,6,2,14
106,107,435953.54353699984,1664.5963270002976,False,25,yesterday,ontem,0.4367187499999999,False,0.6050000000000001,0.3949999999999999,Audio,25,0.6050000000000001,0.3949999999999999,Audio,25,3,7,2,14
107,108,439937.7737189989,2785.900781000208,False,30,far,longe,0.349609375,False,0.6050000000000001,0.3949999999999999,Visual,30,0.6050000000000001,0.3949999999999999,Visual,30,3,7,2,15
108,109,444012.0750509995,1188.4867289991817,True,6,exam,exame,0.20078125,False,0.6655000000000001,0.3344999999999999,Audio,6,0.6655000000000001,0.3344999999999999,Audio,6,4,7,2,15
109,110,446870.0866050003,1053.3316109995358,True,5,insect,inseto,0.20078125,False,0.6155000000000002,0.3844999999999999,Visual,5,0.6155000000000002,0.3844999999999999,Visual,5,4,7,3,15
110,111,449981.0347359999,inf,True,27,can,poder,0.3992187499999999,False,0.6155000000000002,0.3844999999999999,Visual,27,0.6155000000000002,0.3844999999999999,Visual,27,4,7,3,15
111,112,455293.2312609992,2806.1406409997144,False,4,blood,sangue,0.2999999999999999,False,0.6155000000000002,0.3844999999999999,Visual,4,0.6155000000000002,0.3844999999999999,Visual,4,4,7,3,16
112,113,459507.9698669997,1155.0774360002831,True,3,bread,pao,0.20078125,False,0.5655000000000001,0.4344999999999999,Visual,3,0.5655000000000001,0.4344999999999999,Visual,3,4,7,4,16
113,114,462512.09797799855,1526.0622370006167,False,23,week,semana,0.4699218749999999,False,0.5655000000000001,0.4344999999999999,Visual,23,0.5655000000000001,0.4344999999999999,Visual,23,4,7,4,17
114,115,467805.73412899865,1702.5042540008435,True,20,nice to meet you,prazer,0.4656249999999999,False,0.5155000000000001,0.4844999999999999,Visual,20,0.5155000000000001,0.4844999999999999,Visual,20,4,7,5,17
115,116,472476.3669339991,1154.859510999755,True,8,industry,industria,0.20078125,False,0.46550000000000014,0.5344999999999999,Visual,8,0.46550000000000014,0.5344999999999999,Visual,8,4,7,6,17
116,117,475841.27527999954,4652.509026000218,False,29,do,fazer,0.3992187499999999,False,0.46550000000000014,0.5344999999999999,Visual,29,0.46550000000000014,0.5344999999999999,Visual,29,4,7,6,18
117,118,482327.6901669997,inf,True,9,employee,empregado,0.2999999999999999,False,0.5155000000000002,0.4844999999999998,Audio,9,0.5155000000000002,0.4844999999999998,Audio,9,5,7,6,18
118,119,487587.7291109992,3113.944083999726,True,27,can,poder,0.4488281249999999,False,0.5155000000000002,0.4844999999999998,Visual,27,0.5155000000000002,0.4844999999999998,Visual,27,5,7,6,18
119,120,492213.6009360001,4737.123365999665,False,30,far,longe,0.3992187499999999,False,0.5155000000000002,0.4844999999999998,Visual,30,0.5155000000000002,0.4844999999999998,Visual,30,5,7,6,19
120,121,498011.8343180002,1992.984913998924,True,25,yesterday,ontem,0.4363281249999999,False,0.5155000000000002,0.4844999999999998,Audio,25,0.5155000000000002,0.4844999999999998,Audio,25,5,7,6,19
121,122,502550.3531389986,2714.4711160017177,True,17,today,hoje,0.408203125,False,0.46550000000000014,0.5344999999999999,Visual,17,0.46550000000000014,0.5344999999999999,Visual,17,5,7,7,19
122,123,506934.1768759987,2568.185581001686,True,23,week,semana,0.4734374999999999,False,0.46550000000000014,0.5344999999999999,Visual,23,0.46550000000000014,0.5344999999999999,Visual,23,5,7,7,19
123,124,511026.3447340003,3331.364299998328,False,27,can,poder,0.4601562499999999,False,0.46550000000000014,0.5344999999999999,Visual,27,0.46550000000000014,0.5344999999999999,Visual,27,5,7,7,20
124,125,515598.12147799856,3902.747815000126,True,29,do,fazer,0.4488281249999999,False,0.46550000000000014,0.5344999999999999,Visual,29,0.46550000000000014,0.5344999999999999,Visual,29,5,7,7,20
125,126,520787.8301949986,1178.5174520009896,True,10,virus,virus,0.20078125,False,0.5155000000000002,0.4844999999999998,Audio,10,0.5155000000000002,0.4844999999999998,Audio,10,6,7,7,20
126,127,523728.7074260002,1905.0731099996483,False,20,nice to meet you,prazer,0.515234375,False,0.5155000000000002,0.4844999999999998,Visual,20,0.5155000000000002,0.4844999999999998,Visual,20,6,7,7,21
127,128,527178.813896,3342.5897019988624,False,30,far,longe,0.4488281249999999,False,0.5155000000000002,0.4844999999999998,Visual,30,0.5155000000000002,0.4844999999999998,Visual,30,6,7,7,22
128,129,531587.5767639991,1053.3888570007402,True,12,investment,investimento,0.20078125,False,0.5670500000000002,0.43294999999999983,Audio,12,0.5670500000000002,0.43294999999999983,Audio,12,7,7,7,22
129,130,534964.940988999,inf,False,29,do,fazer,0.4617187499999999,False,0.5670500000000002,0.43294999999999983,Visual,29,0.5670500000000002,0.43294999999999983,Visual,29,7,7,7,23
130,131,540306.2008469987,inf,True,20,nice to meet you,prazer,0.5585937500000001,False,0.5670500000000002,0.43294999999999983,Visual,20,0.5670500000000002,0.43294999999999983,Visual,20,7,7,7,23
131,132,546608.4268359991,1538.08460900106,True,27,can,poder,0.4597656249999999,False,0.5670500000000002,0.43294999999999983,Visual,27,0.5670500000000002,0.43294999999999983,Visual,27,7,7,7,23
132,133,549793.0805670003,3231.7883109990507,False,30,far,longe,0.4554687499999998,False,0.5670500000000002,0.43294999999999983,Visual,30,0.5670500000000002,0.43294999999999983,Visual,30,7,7,7,24
133,134,554509.1497149988,inf,False,20,nice to meet you,prazer,0.5597656250000002,False,0.5670500000000002,0.43294999999999983,Visual,20,0.5670500000000002,0.43294999999999983,Visual,20,7,7,7,25
134,135,559544.122936999,1120.2732950005447,True,23,week,semana,0.473046875,False,0.5670500000000002,0.43294999999999983,Visual,23,0.5670500000000002,0.43294999999999983,Visual,23,7,7,7,25
135,136,562152.1733819991,3625.427992001176,True,25,yesterday,ontem,0.4671875,False,0.5670500000000002,0.43294999999999983,Audio,25,0.5670500000000002,0.43294999999999983,Audio,25,7,7,7,25
136,137,568038.0883609996,4632.504294000682,True,14,thank you,obrigado,0.2999999999999999,False,0.6237550000000002,0.37624499999999983,Audio,14,0.6237550000000002,0.37624499999999983,Audio,14,8,7,7,25
137,138,575111.5917569987,2317.559811001061,True,29,do,fazer,0.4597656249999999,False,0.6237550000000002,0.37624499999999983,Visual,29,0.6237550000000002,0.37624499999999983,Visual,29,8,7,7,25
138,139,578811.8387429985,1997.4539520008257,True,20,nice to meet you,prazer,0.5593750000000002,False,0.6237550000000002,0.37624499999999983,Visual,20,0.6237550000000002,0.37624499999999983,Visual,20,8,7,7,25
139,140,583690.9245159987,inf,True,4,blood,sangue,0.3214843749999999,False,0.6237550000000002,0.37624499999999983,Visual,4,0.6237550000000002,0.37624499999999983,Visual,4,8,7,7,25
140,141,587559.8066869988,1545.0774760011118,False,13,yes,sim,0.2999999999999999,False,0.6237550000000002,0.37624499999999983,Visual,13,0.6237550000000002,0.37624499999999983,Visual,13,8,7,7,26
141,142,590759.6526929992,1895.2272170009087,True,15,goodbye,adeus,0.20078125,False,0.5737550000000002,0.4262449999999998,Visual,15,0.5737550000000002,0.4262449999999998,Visual,15,8,7,8,26
142,143,594584.8607879998,4053.169483999256,True,30,far,longe,0.4558593749999998,False,0.5737550000000002,0.4262449999999998,Visual,30,0.5737550000000002,0.4262449999999998,Visual,30,8,7,8,26
143,144,600339.7223979991,1777.552503999672,True,17,today,hoje,0.35859375,False,0.5237550000000002,0.4762449999999998,Visual,17,0.5237550000000002,0.4762449999999998,Visual,17,8,7,9,26
144,145,603805.1929009998,1741.860670999857,True,25,yesterday,ontem,0.418359375,False,0.5761305000000002,0.4238694999999998,Audio,25,0.5761305000000002,0.4238694999999998,Audio,25,9,7,9,26
145,146,608981.2941279997,1547.7884489992866,True,27,can,poder,0.459375,False,0.5761305000000002,0.4238694999999998,Visual,27,0.5761305000000002,0.4238694999999998,Visual,27,9,7,9,26
146,147,611999.8356870001,1294.156524998485,True,20,nice to meet you,prazer,0.5589843750000002,False,0.5761305000000002,0.4238694999999998,Visual,20,0.5761305000000002,0.4238694999999998,Visual,20,9,7,9,26

