,trial,start_time,rt,correct,fact_id,question,answer,alpha,new,audio_visual_chance,visual_chance,audio_or_visual_fact,fact_id,audio_visual_chance,visual_chance,audio_or_visual_fact,fact_id,correct_audio_visual,wrong_audio_visual,correct_visual,wrong_visual
0,1,27849.82154198224,1270.6272920477204,True,1,car,carro,0.3,True,0.5,0.5,Audio,1,0.5,0.5,Audio,1,0,0,0,0
1,2,31290.620459010825,841.17679100018,True,1,car,carro,0.3,False,0.5,0.5,Audio,1,0.5,0.5,Audio,1,0,0,0,0
2,3,34087.693459005095,1292.2638750169426,True,2,visit,visita,0.3,True,0.5,0.5,Audio,2,0.5,0.5,Audio,2,0,0,0,0
3,4,37488.75845898874,784.2816660413519,True,2,visit,visita,0.3,False,0.5,0.5,Audio,2,0.5,0.5,Audio,2,0,0,0,0
4,5,40268.35229201242,1481.9177919998765,True,3,bread,pao,0.3,True,0.5,0.5,Audio,3,0.5,0.5,Audio,3,0,0,0,0
5,6,44185.126167023554,1679.8049999633804,False,4,blood,sangue,0.3,True,0.5,0.5,Visual,4,0.5,0.5,Visual,4,0,0,0,0
6,7,49174.84970903024,3908.571124949958,True,3,bread,pao,0.3,False,0.5,0.5,Audio,3,0.5,0.5,Audio,3,0,0,0,0
7,8,56265.625083993655,1591.170666040853,True,4,blood,sangue,0.3,False,0.5,0.5,Visual,4,0.5,0.5,Visual,4,0,0,0,0
8,9,62179.75175002357,1979.5346249593424,True,5,insect,inseto,0.3,True,0.5,0.5,Visual,5,0.5,0.5,Visual,5,0,0,0,0
9,10,67491.99287500232,1189.5388340344653,True,6,exam,exame,0.3,True,0.5,0.5,Visual,6,0.5,0.5,Visual,6,0,0,0,0
10,11,70848.26045902446,1154.5615830109457,True,5,insect,inseto,0.3,False,0.5,0.5,Visual,5,0.5,0.5,Visual,5,0,0,0,0
11,12,76066.58699997934,878.2332090195268,True,6,exam,exame,0.3,False,0.5,0.5,Visual,6,0.5,0.5,Visual,6,0,0,0,0
12,13,79536.18870902574,2246.7340829898603,True,1,car,carro,0.274609375,False,0.5,0.5,Audio,1,0.5,0.5,Audio,1,0,0,0,0
13,14,84157.85700001288,1385.7601669733413,False,2,visit,visita,0.349609375,False,0.5,0.5,Audio,2,0.5,0.5,Audio,2,0,1,0,0
14,15,89749.64187497972,1115.5403750017283,False,7,elevator,elevador,0.3,True,0.5,0.5,Visual,7,0.5,0.5,Visual,7,0,1,0,0
15,16,93792.60658402929,1591.0319579998031,True,8,industry,industria,0.3,True,0.5,0.5,Visual,8,0.5,0.5,Visual,8,0,1,0,0
16,17,98392.38554198528,929.0275420062244,True,7,elevator,elevador,0.3,False,0.5,0.5,Visual,7,0.5,0.5,Visual,7,0,1,0,0
17,18,102746.34200002764,1374.368124990724,True,8,industry,industria,0.3,False,0.5,0.5,Visual,8,0.5,0.5,Visual,8,0,1,0,0
18,19,107210.3481250233,1027.282208960969,True,3,bread,pao,0.250390625,False,0.5,0.5,Audio,3,0.5,0.5,Audio,3,0,1,0,0
19,20,113157.3024590034,1665.4365829890594,False,4,blood,sangue,0.349609375,False,0.5,0.5,Visual,4,0.5,0.5,Visual,4,0,1,0,1
20,21,115884.7672920092,1075.0521669979207,True,9,employee,empregado,0.3,True,0.5,0.5,Visual,9,0.5,0.5,Visual,9,0,1,0,1
21,22,120198.41187499696,1682.290084019769,True,5,insect,inseto,0.250390625,False,0.5,0.5,Visual,5,0.5,0.5,Visual,5,0,1,0,1
22,23,124330.01287502702,1426.255083992146,True,9,employee,empregado,0.3,False,0.5,0.5,Visual,9,0.5,0.5,Visual,9,0,1,0,1
23,24,132162.85570902983,928.1286249752156,True,2,visit,visita,0.3,False,0.5,0.5,Audio,2,0.5,0.5,Audio,2,0,1,0,1
24,25,135146.72662498197,784.9491250235587,True,6,exam,exame,0.250390625,False,0.5,0.5,Visual,6,0.5,0.5,Visual,6,0,1,0,1
25,26,137936.30441703135,1162.4747919850051,True,10,virus,virus,0.3,True,0.5,0.5,Audio,10,0.5,0.5,Audio,10,0,1,0,1
26,27,140914.3098340137,2684.996374999173,True,11,dinner,jantar,0.3,True,0.5,0.5,Audio,11,0.5,0.5,Audio,11,0,1,0,1
27,28,145627.68766703084,853.6017499864101,True,10,virus,virus,0.3,False,0.5,0.5,Audio,10,0.5,0.5,Audio,10,0,1,0,1
28,29,148298.03116701078,957.510958018247,True,11,dinner,jantar,0.3,False,0.5,0.5,Audio,11,0.5,0.5,Audio,11,0,1,0,1
29,30,152003.4419170115,1057.7910830033943,True,7,elevator,elevador,0.250390625,False,0.5,0.5,Visual,7,0.5,0.5,Visual,7,0,1,0,1
30,31,156023.50191702135,875.4108750144951,True,8,industry,industria,0.250390625,False,0.5,0.5,Visual,8,0.5,0.5,Visual,8,0,1,0,1
31,32,159975.2371670329,1293.1622079922818,True,4,blood,sangue,0.3,False,0.5,0.5,Visual,4,0.5,0.5,Visual,4,0,1,0,1
32,33,168693.402667006,inf,True,12,investment,investimento,0.3,True,0.5,0.5,Visual,12,0.5,0.5,Visual,12,0,1,0,1
33,34,173912.416459003,2088.531707995571,False,9,employee,empregado,0.349609375,False,0.5,0.5,Visual,9,0.5,0.5,Visual,9,0,1,0,2
34,35,177065.13229198754,1550.3624580451287,True,12,investment,investimento,0.3,False,0.5,0.5,Visual,12,0.5,0.5,Visual,12,0,1,0,2
35,36,181359.0732919984,1591.3750419858843,True,13,yes,sim,0.3,True,0.5,0.5,Audio,13,0.5,0.5,Audio,13,0,1,0,2
36,37,184429.18091698084,1862.1291250456125,True,14,thank you,obrigado,0.3,True,0.5,0.5,Audio,14,0.5,0.5,Audio,14,0,1,0,2
37,38,189091.0803750157,1723.1073749717325,True,13,yes,sim,0.3,False,0.5,0.5,Audio,13,0.5,0.5,Audio,13,0,1,0,2
38,39,192692.5129169831,4871.263167005964,False,14,thank you,obrigado,0.3,False,0.5,0.5,Audio,14,0.5,0.5,Audio,14,0,2,0,2
39,40,198630.16583397985,998.4082910232246,True,10,virus,virus,0.250390625,False,0.5,0.5,Audio,10,0.5,0.5,Audio,10,0,2,0,2
40,41,201327.8931250097,2225.5320419790223,False,11,dinner,jantar,0.349609375,False,0.5,0.5,Audio,11,0.5,0.5,Audio,11,0,3,0,2
41,42,204617.8465000121,2271.739333984442,True,15,goodbye,adeus,0.3,True,0.5,0.5,Visual,15,0.5,0.5,Visual,15,0,3,0,2
42,43,210019.65895900503,1594.2866660188884,True,16,smile,sorrir,0.3,True,0.5,0.5,Audio,16,0.5,0.5,Audio,16,0,3,0,2
43,44,213428.7275840179,4245.146166009363,False,15,goodbye,adeus,0.3,False,0.5,0.5,Visual,15,0.5,0.5,Visual,15,0,3,0,3
44,45,219954.7084590304,4458.852082956582,False,16,smile,sorrir,0.3,False,0.5,0.5,Audio,16,0.5,0.5,Audio,16,0,4,0,3
45,46,226989.51112502252,1296.4525839779526,True,9,employee,empregado,0.3,False,0.5,0.5,Visual,9,0.5,0.5,Visual,9,0,4,0,3
46,47,231251.02629198227,989.98583300272,True,12,investment,investimento,0.250390625,False,0.5,0.5,Visual,12,0.5,0.5,Visual,12,0,4,0,3
47,48,234664.43599999184,4382.47895904351,True,13,yes,sim,0.349609375,False,0.5,0.5,Audio,13,0.5,0.5,Audio,13,0,4,0,3
48,49,240660.7083749841,2596.844084037002,True,14,thank you,obrigado,0.328515625,False,0.5,0.5,Audio,14,0.5,0.5,Audio,14,0,4,0,3
49,50,246722.8516250034,5404.604416980874,False,11,dinner,jantar,0.3992187499999999,False,0.5,0.5,Audio,11,0.5,0.5,Audio,11,0,5,0,3
50,51,254959.60766699864,1001.9994170288556,True,1,car,carro,0.225,False,0.5,0.5,Audio,1,0.5,0.5,Audio,1,1,5,0,3
51,52,257960.42433398543,1349.9828330241144,True,17,today,hoje,0.3,True,0.5,0.5,Audio,17,0.5,0.5,Audio,17,1,5,0,3
52,53,261088.52649998156,5528.2664590049535,True,15,goodbye,adeus,0.349609375,False,0.5,0.5,Visual,15,0.5,0.5,Visual,15,1,5,0,3
53,54,269259.6820840263,1865.362832963001,False,17,today,hoje,0.3,False,0.5,0.5,Audio,17,0.5,0.5,Audio,17,1,6,0,3
54,55,272188.38549999055,2553.545417031273,False,16,smile,sorrir,0.349609375,False,0.5,0.5,Audio,16,0.5,0.5,Audio,16,1,7,0,3
55,56,278986.39954201644,1225.236332975328,True,11,dinner,jantar,0.398828125,False,0.5,0.5,Audio,11,0.5,0.5,Audio,11,1,7,0,3
56,57,282700.20916702924,1700.1105829840526,True,13,yes,sim,0.3,False,0.5,0.5,Audio,13,0.5,0.5,Audio,13,2,7,0,3
57,58,286129.3308340246,1178.4961659577675,True,18,airport,aeroporto,0.3,True,0.5,0.5,Audio,18,0.5,0.5,Audio,18,2,7,0,3
58,59,290162.3352500028,1608.5372089874,True,19,hi,oi,0.3,True,0.5,0.5,Visual,19,0.5,0.5,Visual,19,2,7,0,3
59,60,293969.0918340348,1034.4311249791645,True,18,airport,aeroporto,0.3,False,0.5,0.5,Audio,18,0.5,0.5,Audio,18,2,7,0,3
60,61,299924.7773750103,2445.3966669971123,False,19,hi,oi,0.3,False,0.5,0.5,Visual,19,0.5,0.5,Visual,19,2,7,0,4
61,62,303763.9231249923,2155.955875001382,True,15,goodbye,adeus,0.34921875,False,0.5,0.5,Visual,15,0.5,0.5,Visual,15,2,7,0,4
62,63,310058.53470898,3370.4641250078566,False,14,thank you,obrigado,0.3781249999999999,False,0.5,0.5,Audio,14,0.5,0.5,Audio,14,2,8,0,4
63,64,314493.80404199474,2345.6383750308305,True,16,smile,sorrir,0.34921875,False,0.5,0.5,Audio,16,0.5,0.5,Audio,16,2,8,0,4
64,65,319033.3219590248,3304.5318750082515,False,17,today,hoje,0.349609375,False,0.5,0.5,Audio,17,0.5,0.5,Audio,17,2,9,0,4
65,66,323401.5008750139,1503.846750012599,True,20,nice to meet you,prazer,0.3,True,0.5,0.5,Audio,20,0.5,0.5,Audio,20,2,9,0,4
66,67,328520.33666701755,1289.6832919795995,True,21,how are you,tudo bem,0.3,True,0.5,0.5,Audio,21,0.5,0.5,Audio,21,2,9,0,4
67,68,332706.63708401844,1582.590000005439,False,20,nice to meet you,prazer,0.3,False,0.5,0.5,Audio,20,0.5,0.5,Audio,20,2,10,0,4
68,69,335355.6000420358,3868.033291946631,False,21,how are you,tudo bem,0.3,False,0.5,0.5,Audio,21,0.5,0.5,Audio,21,2,11,0,4
69,70,342443.264792033,999.4892499526032,True,11,dinner,jantar,0.3984375,False,0.5,0.5,Audio,11,0.5,0.5,Audio,11,2,11,0,4
70,71,345202.5489170337,887.6435830025002,True,18,airport,aeroporto,0.250390625,False,0.5,0.5,Audio,18,0.5,0.5,Audio,18,2,11,0,4
71,72,348005.9725419851,932.9268330475315,True,2,visit,visita,0.2503906250000001,False,0.5,0.5,Audio,2,0.5,0.5,Audio,2,2,11,0,4
72,73,350708.8112499914,1463.717084028758,True,14,thank you,obrigado,0.328515625,False,0.5,0.5,Audio,14,0.5,0.5,Audio,14,2,11,0,4
73,74,355299.0392500069,2997.2436249954626,True,19,hi,oi,0.349609375,False,0.5,0.5,Visual,19,0.5,0.5,Visual,19,2,11,0,4
74,75,360217.47458400205,1554.44845801685,True,22,week,semana,0.3,True,0.5,0.5,Visual,22,0.5,0.5,Visual,22,2,11,0,4
75,76,364782.7273749863,4745.560334005859,False,17,today,hoje,0.3992187499999999,False,0.5,0.5,Audio,17,0.5,0.5,Audio,17,2,12,0,4
76,77,370591.14254202,1701.023207977414,True,22,week,semana,0.3,False,0.5,0.5,Visual,22,0.5,0.5,Visual,22,2,12,0,4
77,78,374061.516124988,1298.0969170457684,True,23,year,ano,0.3,True,0.5,0.5,Audio,23,0.5,0.5,Audio,23,2,12,0,4
78,79,377265.3884169995,1756.3354999874718,True,24,yesterday,ontem,0.3,True,0.5,0.5,Visual,24,0.5,0.5,Visual,24,2,12,0,4
79,80,381859.876625007,4940.725083986763,False,23,year,ano,0.3,False,0.5,0.5,Audio,23,0.5,0.5,Audio,23,2,13,0,4
80,81,388550.0574170146,inf,False,24,yesterday,ontem,0.3,False,0.5,0.5,Visual,24,0.5,0.5,Visual,24,2,13,0,5
81,82,397923.4173750156,1926.7522089648992,True,21,how are you,tudo bem,0.250390625,False,0.5,0.5,Audio,21,0.5,0.5,Audio,21,2,13,0,5
82,83,403647.6283340016,1997.0692499773577,False,20,nice to meet you,prazer,0.349609375,False,0.5,0.5,Audio,20,0.5,0.5,Audio,20,2,14,0,5
83,84,407693.8594999956,3449.87549999496,True,17,today,hoje,0.4488281249999999,False,0.5,0.5,Audio,17,0.5,0.5,Audio,17,2,14,0,5
84,85,413358.7761250092,2913.27324998565,True,19,hi,oi,0.37421875,False,0.5,0.5,Visual,19,0.5,0.5,Visual,19,2,14,0,5
85,86,419343.98350003175,1552.9624169575982,True,15,goodbye,adeus,0.326171875,False,0.44999999999999996,0.55,Visual,15,0.44999999999999996,0.55,Visual,15,2,14,1,5
86,87,424892.4114170368,4363.408791949041,False,16,smile,sorrir,0.398828125,False,0.44999999999999996,0.55,Audio,16,0.44999999999999996,0.55,Audio,16,2,15,1,5
87,88,430319.5295840269,997.5801659747958,True,22,week,semana,0.250390625,False,0.44999999999999996,0.55,Visual,22,0.44999999999999996,0.55,Visual,22,2,15,1,5
88,89,433406.6734589869,1504.2706250096671,True,17,today,hoje,0.4484374999999999,False,0.44999999999999996,0.55,Audio,17,0.44999999999999996,0.55,Audio,17,2,15,1,5
89,90,438667.5505000167,1156.010916980449,True,23,year,ano,0.250390625,False,0.44999999999999996,0.55,Audio,23,0.44999999999999996,0.55,Audio,23,2,15,1,5
90,91,445031.7933750339,1569.992458971683,True,11,dinner,jantar,0.348828125,False,0.49999999999999994,0.5,Audio,11,0.49999999999999994,0.5,Audio,11,3,15,1,5
91,92,449335.4814170161,3079.549374990165,False,4,blood,sangue,0.349609375,False,0.49999999999999994,0.5,Visual,4,0.49999999999999994,0.5,Visual,4,3,15,1,6
92,93,453477.8914590133,4167.496957990807,False,24,yesterday,ontem,0.349609375,False,0.49999999999999994,0.5,Visual,24,0.49999999999999994,0.5,Visual,24,3,15,1,7
93,94,460581.7971670185,3141.014916996937,True,20,nice to meet you,prazer,0.39453125,False,0.49999999999999994,0.5,Audio,20,0.49999999999999994,0.5,Audio,20,3,15,1,7
94,95,467742.4477500026,2335.574417025782,True,16,smile,sorrir,0.3984375,False,0.49999999999999994,0.5,Audio,16,0.49999999999999994,0.5,Audio,16,3,15,1,7
95,96,472031.3777920092,965.9305419772865,True,19,hi,oi,0.362109375,False,0.44999999999999996,0.55,Visual,19,0.44999999999999996,0.55,Visual,19,3,15,2,7
96,97,474969.55450001406,4312.368209008127,True,3,bread,pao,0.2999999999999999,False,0.49999999999999994,0.5,Audio,3,0.49999999999999994,0.5,Audio,3,4,15,2,7
97,98,484983.2187499851,2019.1659590345807,True,17,today,hoje,0.4308593749999999,False,0.5499999999999999,0.45000000000000007,Audio,17,0.5499999999999999,0.45000000000000007,Audio,17,5,15,2,7
98,99,489010.6665000203,2373.257917002775,True,5,insect,inseto,0.2249999999999999,False,0.4999999999999999,0.5000000000000001,Visual,5,0.4999999999999999,0.5000000000000001,Visual,5,5,15,3,7
99,100,493926.3418340124,1047.1002910053355,True,9,employee,empregado,0.2503906250000001,False,0.4999999999999999,0.5000000000000001,Visual,9,0.4999999999999999,0.5000000000000001,Visual,9,5,15,3,7
100,101,497917.74879198056,4453.538875037339,False,20,nice to meet you,prazer,0.395703125,False,0.4999999999999999,0.5000000000000001,Audio,20,0.4999999999999999,0.5000000000000001,Audio,20,5,16,3,7
101,102,507980.8170420001,6219.094042025972,True,24,yesterday,ontem,0.3992187499999999,False,0.4999999999999999,0.5000000000000001,Visual,24,0.4999999999999999,0.5000000000000001,Visual,24,5,16,3,7
102,103,517975.8054590202,863.7139580096118,True,6,exam,exame,0.20078125,False,0.44999999999999984,0.5500000000000002,Visual,6,0.44999999999999984,0.5500000000000002,Visual,6,5,16,4,7
103,104,520777.26841700496,4992.780832981225,True,4,blood,sangue,0.375,False,0.44999999999999984,0.5500000000000002,Visual,4,0.44999999999999984,0.5500000000000002,Visual,4,5,16,4,7
104,105,527839.7338750074,1437.7757500042208,True,7,elevator,elevador,0.20078125,False,0.3949999999999998,0.6050000000000002,Visual,7,0.3949999999999998,0.6050000000000002,Visual,7,5,16,5,7
105,106,532067.2516670311,1505.1874999771826,True,8,industry,industria,0.20078125,False,0.3344999999999998,0.6655000000000002,Visual,8,0.3344999999999998,0.6655000000000002,Visual,8,5,16,6,7
106,107,536840.1582920342,2451.61308295792,False,13,yes,sim,0.349609375,False,0.3344999999999998,0.6655000000000002,Audio,13,0.3344999999999998,0.6655000000000002,Audio,13,5,17,6,7
107,108,540354.5892499969,2119.599834026303,True,24,yesterday,ontem,0.398828125,False,0.3344999999999998,0.6655000000000002,Visual,24,0.3344999999999998,0.6655000000000002,Visual,24,5,17,6,7
108,109,545328.412834031,943.2345409877598,True,10,virus,virus,0.20078125,False,0.3844999999999998,0.6155000000000002,Audio,10,0.3844999999999998,0.6155000000000002,Audio,10,6,17,6,7
109,110,548401.4265420265,6373.420666961465,False,16,smile,sorrir,0.423046875,False,0.3844999999999998,0.6155000000000002,Audio,16,0.3844999999999998,0.6155000000000002,Audio,16,6,18,6,7
110,111,556629.5006669825,961.5057080518454,True,12,investment,investimento,0.20078125,False,0.32294999999999985,0.6770500000000002,Visual,12,0.32294999999999985,0.6770500000000002,Visual,12,6,18,7,7
111,112,560715.7476670109,5975.721416994929,False,17,today,hoje,0.4687499999999999,False,0.32294999999999985,0.6770500000000002,Audio,17,0.32294999999999985,0.6770500000000002,Audio,17,6,19,7,7
112,113,568111.9757919805,4653.968708007596,True,20,nice to meet you,prazer,0.39765625,False,0.32294999999999985,0.6770500000000002,Audio,20,0.32294999999999985,0.6770500000000002,Audio,20,6,19,7,7
113,114,576522.7607919951,1423.481083009392,True,3,bread,pao,0.2996093749999999,False,0.37294999999999984,0.6270500000000001,Audio,3,0.37294999999999984,0.6270500000000001,Audio,3,7,19,7,7
114,115,580531.2517090351,5661.2331659998745,True,14,thank you,obrigado,0.3781249999999999,False,0.37294999999999984,0.6270500000000001,Audio,14,0.37294999999999984,0.6270500000000001,Audio,14,7,19,7,7
115,116,589482.6257090317,3305.924457963556,True,19,hi,oi,0.3804687500000001,False,0.3102449999999999,0.6897550000000001,Visual,19,0.3102449999999999,0.6897550000000001,Visual,19,7,19,8,7
116,117,594527.2168340161,2817.080957989674,True,17,today,hoje,0.4785156249999999,False,0.3102449999999999,0.6897550000000001,Audio,17,0.3102449999999999,0.6897550000000001,Audio,17,7,19,8,7
117,118,599846.563250001,2146.8605840345845,True,4,blood,sangue,0.369140625,False,0.3102449999999999,0.6897550000000001,Visual,4,0.3102449999999999,0.6897550000000001,Visual,4,7,19,8,7
118,119,606041.3558750297,2744.9074999894947,True,13,yes,sim,0.37109375,False,0.3102449999999999,0.6897550000000001,Audio,13,0.3102449999999999,0.6897550000000001,Audio,13,7,19,8,7
119,120,610686.0395420226,2178.6124579957686,False,16,smile,sorrir,0.4320312500000001,False,0.3102449999999999,0.6897550000000001,Audio,16,0.3102449999999999,0.6897550000000001,Audio,16,7,20,8,7
120,121,613929.0364999906,inf,False,24,yesterday,ontem,0.4453125,False,0.3102449999999999,0.6897550000000001,Visual,24,0.3102449999999999,0.6897550000000001,Visual,24,7,20,8,8
121,122,620766.344750009,1401.563042018097,True,15,goodbye,adeus,0.2765625,False,0.24126949999999991,0.7587305000000001,Visual,15,0.24126949999999991,0.7587305000000001,Visual,15,7,20,9,8
122,123,624379.0046250215,9724.677458987571,True,14,thank you,obrigado,0.4058593749999999,False,0.2912694999999999,0.7087305000000002,Audio,14,0.2912694999999999,0.7087305000000002,Audio,14,8,20,9,8

